,Part,TrialN,PairID,LValue,RValue,ChosenITM,ChoiceRT,Conf,ConfRT,BlockCond,tDDT,lIA_DT,rIA_DT,tGSF,lastFixat,DV,zDV,absDV,zAbsDV,zConf,zChoiceRT,TotVal,ValCh,ValUnCh,Correct,zTotVal,zValCh,zValUnCh,zGSF,zDDT,absDDT,zValR,zValL,ConfSplit,GSFMedSplit,DDTMedSplit
0,1,1,49,110,131,0,4261.735,74,1584.966,LESS,-508,2392,1884,4,2,21,1.968557767,21,2.095290887,0.388833339,1.228449028,241,110,131,1,1.615547226,1.170500555,1.989850943,1.312145182,-0.061319475,0.061319475,1.989850943,1.170500555,1,1,1
1,1,2,13,47,50,1,3559.258,54,1864.387,LESS,-504,2188,1684,4,1,3,0.281222538,3,-1.047645444,-0.640053114,0.655295103,97,47,50,1,-1.256536731,-1.28755061,-1.170500555,1.312145182,-0.05645687,0.05645687,-1.170500555,-1.28755061,0,1,1
2,1,3,16,50,44,1,3754.464,64,3778.807,LESS,-48,1644,1596,2,1,-6,-0.562445076,6,-0.523822722,-0.125609888,0.814564495,94,50,44,0,-1.316371814,-1.170500555,-1.404600665,-0.399348534,0.497880095,0.497880095,-1.404600665,-1.170500555,0,0,1
3,1,4,7,57,50,0,2431.751,84,3064.179,LESS,-2462,3136,674,2,1,-7,-0.656185922,7,-0.349215148,0.903276565,-0.264642579,107,57,50,0,-1.057086457,-0.897383758,-1.170500555,-0.399348534,-2.436701993,2.436701993,-1.170500555,-0.897383758,1,0,0
4,1,5,18,42,50,0,2199.342,44,2850.845,LESS,-1130,1672,542,2,1,8,0.749926769,8,-0.174607574,-1.15449634,-0.454266055,92,42,50,1,-1.356261869,-1.482634036,-1.170500555,-0.399348534,-0.817454544,0.817454544,-1.170500555,-1.482634036,0,0,0
5,1,6,51,108,110,0,3269.922,44,3745.039,LESS,-1490,2472,982,2,1,2,0.187481692,2,-1.222253018,-1.15449634,0.419224649,218,108,110,1,1.156811594,1.092467184,1.170500555,-0.399348534,-1.25508899,1.25508899,1.170500555,1.092467184,0,0,0
6,1,7,31,78,80,0,6606.698,74,2425.516,LESS,-1170,3474,2304,5,1,2,0.187481692,2,-1.222253018,0.388833339,3.141714156,158,78,80,1,-0.039890055,-0.07803337,0,2.16789204,-0.866080594,0.866080594,0,-0.07803337,1,1,0
7,1,8,58,110,92,1,3642.146,74,3030.001,LESS,-1680,3044,1364,2,2,-18,-1.687335229,18,1.571468165,0.388833339,0.722923769,202,110,92,0,0.837691154,1.170500555,0.468200222,-0.399348534,-1.486062725,1.486062725,0.468200222,1.170500555,1,0,0
8,1,9,12,50,48,1,5213.48,54,2229.314,LESS,-472,2860,2388,6,1,-2,-0.187481692,2,-1.222253018,-0.640053114,2.004981758,98,50,48,0,-1.236591704,-1.170500555,-1.248533925,3.023638899,-0.01755603,0.01755603,-1.248533925,-1.170500555,0,1,1
9,1,10,54,110,101,1,5511.334,34,1727.761,LESS,752,2000,2752,5,2,-9,-0.843667615,9,0,-1.668939567,2.248002083,211,110,101,0,1.017196402,1.170500555,0.819350388,2.16789204,1.470401085,1.470401085,0.819350388,1.170500555,0,1,1
10,1,11,14,46,50,0,2007.957,74,1249.337,LESS,-772,1334,562,2,1,4,0.374963384,4,-0.87303787,0.388833339,-0.610417877,96,46,50,1,-1.276481759,-1.326567295,-1.170500555,-0.399348534,-0.382251401,0.382251401,-1.170500555,-1.326567295,1,0,0
11,1,12,22,80,83,1,3124.521,64,1956.342,LESS,-918,2186,1268,4,1,3,0.281222538,3,-1.047645444,-0.125609888,0.300591365,163,80,83,1,0.059835082,0,0.117050055,1.312145182,-0.559736482,0.559736482,0.117050055,0,0,1,0
12,1,13,6,50,56,0,1978.076,74,3940.974,LESS,-1050,1608,558,2,1,6,0.562445076,6,-0.523822722,0.388833339,-0.63479791,106,50,56,1,-1.077031484,-1.170500555,-0.936400444,-0.399348534,-0.720202445,0.720202445,-0.936400444,-1.170500555,1,0,0
13,1,14,13,50,47,1,2508.548,34,2032.978,LESS,-428,1614,1186,3,1,-3,-0.281222538,3,-1.047645444,-1.668939567,-0.201983585,97,50,47,0,-1.256536731,-1.170500555,-1.28755061,0.456398324,0.035932625,0.035932625,-1.28755061,-1.170500555,0,1,1
14,1,15,46,110,124,1,3907.246,4,1461.971,LESS,-660,2542,1882,5,1,14,1.312371845,14,0.87303787,-3.212269245,0.939219969,234,110,124,1,1.475932034,1.170500555,1.716734147,2.16789204,-0.246098463,0.246098463,1.716734147,1.170500555,0,1,1
15,1,16,27,91,80,1,3482.062,64,2540.283,LESS,-660,2246,1586,4,1,-11,-1.031149307,11,0.349215148,-0.125609888,0.592310563,171,91,80,0,0.219395302,0.429183537,0,1.312145182,-0.246098463,0.246098463,0,0.429183537,0,1,1
16,1,17,40,64,80,0,1823.377,74,2167.747,LESS,-750,1256,506,2,1,16,1.499853537,16,1.222253018,0.388833339,-0.761017472,144,64,80,1,-0.31912044,-0.624266962,0,-0.399348534,-0.355507074,0.355507074,0,-0.624266962,1,0,0
17,1,18,22,83,80,0,5111.944,64,1821.922,LESS,-1778,3340,1562,4,2,-3,-0.281222538,3,-1.047645444,-0.125609888,1.92213811,163,83,80,0,0.059835082,0.117050055,0,1.312145182,-1.605196547,1.605196547,0,0.117050055,0,1,0
18,1,19,54,101,110,0,4920.474,54,3188.875,LESS,-2694,3968,1274,4,1,9,0.843667615,9,0,-0.640053114,1.765916936,211,101,110,1,1.017196402,0.819350388,1.170500555,1.312145182,-2.71873308,2.71873308,1.170500555,0.819350388,0,1,0
19,1,20,6,56,50,0,1869.935,54,1348.091,LESS,-620,1160,540,2,1,-6,-0.562445076,6,-0.523822722,-0.640053114,-0.723030605,106,56,50,0,-1.077031484,-0.936400444,-1.170500555,-0.399348534,-0.197472413,0.197472413,-1.170500555,-0.936400444,0,1,1
20,1,21,18,50,42,0,1705.811,84,1299.314,LESS,20,1130,1150,2,2,-8,-0.749926769,8,-0.174607574,0.903276565,-0.856940064,92,50,42,0,-1.356261869,-1.170500555,-1.482634036,-0.399348534,0.580544379,0.580544379,-1.482634036,-1.170500555,1,0,1
21,1,22,43,110,117,0,3083.54,54,2248.677,LESS,-1634,2252,618,2,1,7,0.656185922,7,-0.349215148,-0.640053114,0.267154795,227,110,117,1,1.336316841,1.170500555,1.443617351,-0.399348534,-1.430142768,1.430142768,1.443617351,1.170500555,0,0,0
22,1,23,32,77,80,0,2474.714,24,1261.502,LESS,-1258,1954,696,2,1,3,0.281222538,3,-1.047645444,-2.183382793,-0.229588887,157,77,80,1,-0.059835082,-0.117050055,0,-0.399348534,-0.973057903,0.973057903,0,-0.117050055,0,1,0
23,1,24,27,80,91,0,2272.349,74,1373.872,LESS,-728,1536,808,2,1,11,1.031149307,11,0.349215148,0.388833339,-0.394699338,171,80,91,1,0.219395302,0,0.429183537,-0.399348534,-0.328762747,0.328762747,0.429183537,0,1,0,0
24,1,25,16,44,50,0,3790.48,64,2175.914,LESS,-616,1952,1336,4,1,6,0.562445076,6,-0.523822722,-0.125609888,0.843950101,94,44,50,1,-1.316371814,-1.404600665,-1.170500555,1.312145182,-0.192609808,0.192609808,-1.170500555,-1.404600665,0,1,1
25,1,26,7,50,57,0,2046.062,64,1804.283,LESS,-774,1330,556,2,1,7,0.656185922,7,-0.349215148,-0.125609888,-0.579327848,107,50,57,1,-1.057086457,-1.170500555,-0.897383758,-0.399348534,-0.384682704,0.384682704,-0.897383758,-1.170500555,0,0,0
26,1,27,14,50,46,1,3822.251,64,1246.179,LESS,686,1538,2224,3,2,-4,-0.374963384,4,-0.87303787,-0.125609888,0.869872192,96,50,46,0,-1.276481759,-1.170500555,-1.326567295,0.456398324,1.390168103,1.390168103,-1.326567295,-1.170500555,0,1,1
27,1,28,51,110,108,0,3347.54,64,1979.166,LESS,-1556,2496,940,4,1,-2,-0.187481692,2,-1.222253018,-0.125609888,0.4825535,218,110,108,0,1.156811594,1.170500555,1.092467184,1.312145182,-1.335321972,1.335321972,1.092467184,1.170500555,0,1,0
28,1,29,50,133,110,1,2252.245,54,2859.177,LESS,-236,1374,1138,1,1,-23,-2.15603946,23,2.444506035,-0.640053114,-0.411102275,243,133,110,0,1.655437281,2.067884313,1.170500555,-1.255095392,0.269337662,0.269337662,1.170500555,2.067884313,0,0,1
29,1,30,49,131,110,1,2083.424,74,1310.553,LESS,388,964,1352,1,2,-21,-1.968557767,21,2.095290887,0.388833339,-0.548844036,241,131,110,0,1.615547226,1.989850943,1.170500555,-1.255095392,1.027904035,1.027904035,1.170500555,1.989850943,1,0,1
30,1,31,47,126,110,1,4155.502,44,1021.733,LESS,-726,2120,1394,3,2,-16,-1.499853537,16,1.222253018,-1.15449634,1.141773078,236,126,110,0,1.515822089,1.794767517,1.170500555,0.456398324,-0.326331444,0.326331444,1.170500555,1.794767517,0,1,0
31,1,32,50,110,133,0,2550.939,84,2476.876,LESS,-610,1748,1138,2,2,23,2.15603946,23,2.444506035,0.903276565,-0.16739659,243,110,133,1,1.655437281,1.170500555,2.067884313,-0.399348534,-0.185315901,0.185315901,2.067884313,1.170500555,1,0,1
32,1,33,47,110,126,0,5814.551,64,1875.655,LESS,-2620,3952,1332,3,2,16,1.499853537,16,1.222253018,-0.125609888,2.495398103,236,110,126,1,1.515822089,1.170500555,1.794767517,0.456398324,-2.628774889,2.628774889,1.794767517,1.170500555,0,1,0
33,1,34,12,48,50,0,1428.288,94,3195.264,LESS,538,1024,1562,2,2,2,0.187481692,2,-1.222253018,1.417719791,-1.083372241,98,48,50,1,-1.236591704,-1.248533925,-1.170500555,-0.399348534,1.21025172,1.21025172,-1.170500555,-1.248533925,1,0,1
34,1,35,32,80,77,0,1743.991,84,714.693,LESS,-582,1362,780,3,2,-3,-0.281222538,3,-1.047645444,0.903276565,-0.825788842,157,80,77,0,-0.059835082,0,-0.117050055,0.456398324,-0.151277666,0.151277666,-0.117050055,0,1,1,1
35,1,36,43,117,110,1,2329.644,34,2402.523,LESS,-514,1568,1054,3,1,-7,-0.656185922,7,-0.349215148,-1.668939567,-0.347952107,227,117,110,0,1.336316841,1.443617351,1.170500555,0.456398324,-0.068613382,0.068613382,1.170500555,1.443617351,0,1,1
36,1,37,40,80,64,1,3381.75,74,1358.669,LESS,-252,1750,1498,3,2,-16,-1.499853537,16,1.222253018,0.388833339,0.510465583,144,80,64,0,-0.31912044,0,-0.624266962,0.456398324,0.249887242,0.249887242,-0.624266962,0,1,1,1
37,1,38,31,80,78,0,2209.993,34,1186.315,LESS,-956,1456,500,2,1,-2,-0.187481692,2,-1.222253018,-1.668939567,-0.445575859,158,80,78,0,-0.039890055,0,-0.07803337,-0.399348534,-0.605931229,0.605931229,-0.07803337,0,0,0,0
38,1,39,46,124,110,1,3602.313,64,1465.37,LESS,390,1444,1834,3,2,-14,-1.312371845,14,0.87303787,-0.125609888,0.690423858,234,124,110,0,1.475932034,1.716734147,1.170500555,0.456398324,1.030335337,1.030335337,1.170500555,1.716734147,0,1,1
39,1,40,58,92,110,0,2506.099,84,3023.266,LESS,-294,1550,1256,2,2,18,1.687335229,18,1.571468165,0.903276565,-0.203981734,202,92,110,1,0.837691154,0.468200222,1.170500555,-0.399348534,0.19882989,0.19882989,1.170500555,0.468200222,1,0,1
40,1,41,49,110,131,1,1734.284,74,2314.899,MORE,-92,726,634,0,2,21,1.968557767,21,2.095290887,0.388833339,-0.833708824,241,110,131,0,1.615547226,1.170500555,1.989850943,-2.11084225,0.44439144,0.44439144,1.989850943,1.170500555,1,0,1
41,1,42,13,47,50,0,6555.37,64,2919.419,MORE,-3882,5110,1228,4,1,3,0.281222538,3,-1.047645444,-0.125609888,3.099835426,97,47,50,0,-1.256536731,-1.28755061,-1.170500555,1.312145182,-4.162926751,4.162926751,-1.170500555,-1.28755061,0,1,0
42,1,43,16,50,44,0,3174.566,64,1513.199,MORE,-638,1764,1126,4,1,-6,-0.562445076,6,-0.523822722,-0.125609888,0.34142329,94,50,44,1,-1.316371814,-1.170500555,-1.404600665,1.312145182,-0.219354135,0.219354135,-1.404600665,-1.170500555,0,1,0
43,1,44,7,57,50,1,2877.579,74,1177.676,MORE,-352,1472,1120,3,2,-7,-0.656185922,7,-0.349215148,0.388833339,0.099110353,107,57,50,1,-1.057086457,-0.897383758,-1.170500555,0.456398324,0.128322119,0.128322119,-1.170500555,-0.897383758,1,1,0
44,1,45,18,42,50,1,1806.31,54,1375.228,MORE,194,772,966,1,2,8,0.749926769,8,-0.174607574,-0.640053114,-0.774942509,92,42,50,0,-1.356261869,-1.482634036,-1.170500555,-1.255095392,0.792067694,0.792067694,-1.170500555,-1.482634036,0,0,1
45,1,46,51,108,110,0,3636.816,64,1251.974,MORE,-686,1854,1168,3,1,2,0.187481692,2,-1.222253018,-0.125609888,0.718575,218,108,110,0,1.156811594,1.092467184,1.170500555,0.456398324,-0.277705395,0.277705395,1.170500555,1.092467184,0,1,0
46,1,47,31,78,80,1,3650.266,100,1077.556,MORE,24,2008,2032,1,2,2,0.187481692,2,-1.222253018,1.726385727,0.729548911,158,78,80,0,-0.039890055,-0.07803337,0,-1.255095392,0.585406984,0.585406984,0,-0.07803337,1,0,1
47,1,48,58,110,92,0,3078.223,74,1222.433,MORE,-364,1728,1364,4,1,-18,-1.687335229,18,1.571468165,0.388833339,0.262816633,202,110,92,1,0.837691154,1.170500555,0.468200222,1.312145182,0.113734304,0.113734304,0.468200222,1.170500555,1,1,0
48,1,49,12,50,48,1,1259.268,94,1471.199,MORE,946,466,1412,1,2,-2,-0.187481692,2,-1.222253018,1.417719791,-1.221276367,98,50,48,1,-1.236591704,-1.170500555,-1.248533925,-1.255095392,1.706237425,1.706237425,-1.248533925,-1.170500555,1,0,1
49,1,50,54,110,101,0,3440.738,24,2589.771,MORE,-1738,2902,1164,4,1,-9,-0.843667615,9,0,-2.183382793,0.558594139,211,110,101,1,1.017196402,1.170500555,0.819350388,1.312145182,-1.556570497,1.556570497,0.819350388,1.170500555,0,1,0
50,1,51,14,46,50,1,5698.027,44,1077.134,MORE,-290,1972,1682,3,2,4,0.374963384,4,-0.87303787,-1.15449634,2.400325683,96,46,50,0,-1.276481759,-1.326567295,-1.170500555,0.456398324,0.203692495,0.203692495,-1.170500555,-1.326567295,0,1,1
51,1,52,22,80,83,1,8224.467,64,1717.749,MORE,-1804,4458,2654,7,2,3,0.281222538,3,-1.047645444,-0.125609888,4.461658656,163,80,83,0,0.059835082,0,0.117050055,3.879385757,-1.636803479,1.636803479,0.117050055,0,0,1,0
52,1,53,6,50,56,1,2626.168,64,2225.933,MORE,-434,1480,1046,3,2,6,0.562445076,6,-0.523822722,-0.125609888,-0.106016934,106,50,56,0,-1.077031484,-1.170500555,-0.936400444,0.456398324,0.028638717,0.028638717,-0.936400444,-1.170500555,0,1,0
53,1,54,13,50,47,0,1991.413,34,929.111,MORE,-994,1494,500,2,1,-3,-0.281222538,3,-1.047645444,-1.668939567,-0.623916196,97,50,47,1,-1.256536731,-1.170500555,-1.28755061,-0.399348534,-0.652125976,0.652125976,-1.28755061,-1.170500555,0,1,0
54,1,55,46,110,124,1,1671.149,64,893.164,MORE,432,654,1086,1,2,14,1.312371845,14,0.87303787,-0.125609888,-0.885220934,234,110,124,0,1.475932034,1.170500555,1.716734147,-1.255095392,1.081392689,1.081392689,1.716734147,1.170500555,0,0,1
55,1,56,27,91,80,0,2607.607,54,1793.087,MORE,-1654,2206,552,2,1,-11,-1.031149307,11,0.349215148,-0.640053114,-0.121160932,171,91,80,1,0.219395302,0.429183537,0,-0.399348534,-1.454455793,1.454455793,0,0.429183537,0,1,0
56,1,57,40,64,80,1,1527.826,100,813.322,MORE,758,562,1320,1,2,16,1.499853537,16,1.222253018,1.726385727,-1.00215877,144,64,80,0,-0.31912044,-0.624266962,0,-1.255095392,1.477694993,1.477694993,0,-0.624266962,1,0,1
57,1,58,22,83,80,0,5043.16,64,1399.128,MORE,-526,2494,1968,6,1,-3,-0.281222538,3,-1.047645444,-0.125609888,1.866016957,163,83,80,1,0.059835082,0.117050055,0,3.023638899,-0.083201197,0.083201197,0,0.117050055,0,1,0
58,1,59,54,101,110,1,2267.665,34,986.77,MORE,142,996,1138,1,2,9,0.843667615,9,0,-1.668939567,-0.398521033,211,101,110,0,1.017196402,0.819350388,1.170500555,-1.255095392,0.72885383,0.72885383,1.170500555,0.819350388,0,0,1
59,1,60,6,56,50,0,4499.543,74,1357.733,MORE,-1232,2734,1502,4,2,-6,-0.562445076,6,-0.523822722,0.388833339,1.422477571,106,56,50,1,-1.077031484,-0.936400444,-1.170500555,1.312145182,-0.941450971,0.941450971,-1.170500555,-0.936400444,1,1,0
60,1,61,18,50,42,0,5571.061,74,991.395,MORE,-696,2884,2188,4,2,-8,-0.749926769,8,-0.174607574,0.388833339,2.296733592,92,50,42,1,-1.356261869,-1.170500555,-1.482634036,1.312145182,-0.289861907,0.289861907,-1.482634036,-1.170500555,1,1,0
61,1,62,43,110,117,1,2045.641,84,1732.67,MORE,556,1108,1664,1,2,7,0.656185922,7,-0.349215148,0.903276565,-0.579671344,227,110,117,0,1.336316841,1.170500555,1.443617351,-1.255095392,1.232133443,1.232133443,1.443617351,1.170500555,1,0,1
62,1,63,32,77,80,1,1402.112,64,2053.806,MORE,518,482,1000,1,2,3,0.281222538,3,-1.047645444,-0.125609888,-1.104729349,157,77,80,0,-0.059835082,-0.117050055,0,-1.255095392,1.185938696,1.185938696,0,-0.117050055,0,0,1
63,1,64,27,80,91,1,2736.625,74,1971.489,MORE,190,1316,1506,3,2,11,1.031149307,11,0.349215148,0.388833339,-0.015894606,171,80,91,0,0.219395302,0,0.429183537,0.456398324,0.787205089,0.787205089,0.429183537,0,1,1,1
64,1,65,16,44,50,1,2065.604,64,2403.31,MORE,294,818,1112,0,2,6,0.562445076,6,-0.523822722,-0.125609888,-0.563383449,94,44,50,0,-1.316371814,-1.404600665,-1.170500555,-2.11084225,0.913632818,0.913632818,-1.170500555,-1.404600665,0,0,1
65,1,66,7,50,57,1,3058.203,64,1657.954,MORE,-6,1416,1410,3,2,7,0.656185922,7,-0.349215148,-0.125609888,0.246482231,107,50,57,0,-1.057086457,-1.170500555,-0.897383758,0.456398324,0.548937447,0.548937447,-0.897383758,-1.170500555,0,1,1
66,1,67,14,50,46,1,1613.454,64,1014.648,MORE,358,608,966,1,2,-4,-0.374963384,4,-0.87303787,-0.125609888,-0.932294526,96,50,46,1,-1.276481759,-1.170500555,-1.326567295,-1.255095392,0.991434497,0.991434497,-1.326567295,-1.170500555,0,0,1
67,1,68,51,110,108,1,1931.482,84,1086.543,MORE,460,998,1458,1,2,-2,-0.187481692,2,-1.222253018,0.903276565,-0.67281415,218,110,108,1,1.156811594,1.170500555,1.092467184,-1.255095392,1.115430924,1.115430924,1.092467184,1.170500555,1,0,1
68,1,69,50,133,110,0,4895.517,74,964.583,MORE,-1858,3392,1534,4,2,-23,-2.15603946,23,2.444506035,0.388833339,1.745554415,243,133,110,1,1.655437281,2.067884313,1.170500555,1.312145182,-1.702448646,1.702448646,1.170500555,2.067884313,1,1,0
69,1,70,49,131,110,1,3197.86,34,1226.561,MORE,-104,1512,1408,2,2,-21,-1.968557767,21,2.095290887,-1.668939567,0.360428962,241,131,110,1,1.615547226,1.989850943,1.170500555,-0.399348534,0.429803626,0.429803626,1.170500555,1.989850943,0,0,1
70,1,71,47,126,110,1,2000.688,64,1976.766,MORE,1668,814,2482,1,2,-16,-1.499853537,16,1.222253018,-0.125609888,-0.616348685,236,126,110,1,1.515822089,1.794767517,1.170500555,-1.255095392,2.583937619,2.583937619,1.170500555,1.794767517,0,0,1
71,1,72,50,110,133,1,1921.251,94,1085.583,MORE,388,902,1290,1,2,23,2.15603946,23,2.444506035,1.417719791,-0.681161666,243,110,133,0,1.655437281,1.170500555,2.067884313,-1.255095392,1.027904035,1.027904035,2.067884313,1.170500555,1,0,1
72,1,73,47,110,126,1,2050.497,94,671.347,MORE,400,986,1386,1,2,16,1.499853537,16,1.222253018,1.417719791,-0.575709313,236,110,126,0,1.515822089,1.170500555,1.794767517,-1.255095392,1.042491849,1.042491849,1.794767517,1.170500555,1,0,1
73,1,74,12,48,50,1,2219.756,64,947.498,MORE,1160,504,1664,1,2,2,0.187481692,2,-1.222253018,-0.125609888,-0.437610187,98,48,50,0,-1.236591704,-1.248533925,-1.170500555,-1.255095392,1.96638679,1.96638679,-1.170500555,-1.248533925,0,0,1
74,1,75,32,80,77,1,1635.473,34,1756.646,MORE,298,644,942,0,2,-3,-0.281222538,3,-1.047645444,-1.668939567,-0.914329132,157,80,77,1,-0.059835082,0,-0.117050055,-2.11084225,0.918495423,0.918495423,-0.117050055,0,0,0,1
75,1,76,43,117,110,0,5608.432,64,1783.309,MORE,-674,2874,2200,6,1,-7,-0.656185922,7,-0.349215148,-0.125609888,2.327224748,227,117,110,1,1.336316841,1.443617351,1.170500555,3.023638899,-0.26311758,0.26311758,1.170500555,1.443617351,0,1,0
76,1,77,40,80,64,0,4443.018,34,914.203,MORE,-1002,2624,1622,4,1,-16,-1.499853537,16,1.222253018,-1.668939567,1.376358586,144,80,64,1,-0.31912044,0,-0.624266962,1.312145182,-0.661851186,0.661851186,-0.624266962,0,0,1,0
77,1,78,31,80,78,1,2620.927,100,1013.713,MORE,408,1098,1506,3,2,-2,-0.187481692,2,-1.222253018,1.726385727,-0.110293088,158,80,78,1,-0.039890055,0,-0.07803337,0.456398324,1.052217059,1.052217059,-0.07803337,0,1,1,1
78,1,79,46,124,110,1,1725.903,64,2174.162,MORE,-200,1128,928,1,1,-14,-1.312371845,14,0.87303787,-0.125609888,-0.840546917,234,124,110,1,1.475932034,1.716734147,1.170500555,-1.255095392,0.313101107,0.313101107,1.170500555,1.716734147,0,0,1
79,1,80,58,92,110,1,3225.23,54,1560.319,MORE,-480,1938,1458,3,1,18,1.687335229,18,1.571468165,-0.640053114,0.382760259,202,92,110,0,0.837691154,0.468200222,1.170500555,0.456398324,-0.02728124,0.02728124,1.170500555,0.468200222,0,1,0
80,1,81,48,128,110,1,7964.301,54,1952.117,LESS,-734,3890,3156,4,1,-18,-1.687335229,18,1.571468165,-0.640053114,4.249388127,238,128,110,0,1.555712144,1.872800887,1.170500555,1.312145182,-0.336056654,0.336056654,1.170500555,1.872800887,0,1,0
81,1,82,8,50,58,0,1743.824,64,2343.446,LESS,-960,1426,466,2,1,8,0.749926769,8,-0.174607574,-0.125609888,-0.825925098,108,50,58,1,-1.037141429,-1.170500555,-0.858367073,-0.399348534,-0.610793834,0.610793834,-0.858367073,-1.170500555,1,0,0
82,1,83,4,54,50,0,2122.334,54,1286.756,LESS,-1186,1716,530,2,1,-4,-0.374963384,4,-0.87303787,-0.640053114,-0.517097204,104,54,50,0,-1.116921539,-1.014433814,-1.170500555,-0.399348534,-0.885531014,0.885531014,-1.170500555,-1.014433814,0,0,0
83,1,84,37,80,69,1,2518.011,84,2851.118,LESS,212,1776,1988,3,2,-11,-1.031149307,11,0.349215148,0.903276565,-0.194262683,149,80,69,0,-0.219395302,0,-0.429183537,0.456398324,0.813949417,0.813949417,-0.429183537,0,1,1,1
84,1,85,52,105,110,0,2201.475,64,1874.471,LESS,-944,1712,768,2,1,5,0.46870423,5,-0.698430296,-0.125609888,-0.452525731,215,105,110,1,1.096976512,0.975417129,1.170500555,-0.399348534,-0.591343414,0.591343414,1.170500555,0.975417129,1,0,0
85,1,86,5,55,50,0,2131.478,64,1083.81,LESS,-634,1302,668,2,1,-5,-0.46870423,5,-0.698430296,-0.125609888,-0.509636576,105,55,50,0,-1.096976512,-0.975417129,-1.170500555,-0.399348534,-0.21449153,0.21449153,-1.170500555,-0.975417129,1,0,1
86,1,87,30,96,80,0,2017.429,4,1183.942,LESS,-1858,2362,504,2,1,-16,-1.499853537,16,1.222253018,-3.212269245,-0.602689633,176,96,80,0,0.31912044,0.624266962,0,-0.399348534,-1.702448646,1.702448646,0,0.624266962,0,0,0
87,1,88,33,80,75,1,3241.381,64,1875.688,LESS,712,1180,1892,3,2,-5,-0.46870423,5,-0.698430296,-0.125609888,0.395937928,155,80,75,0,-0.099725137,0,-0.195083426,0.456398324,1.421775036,1.421775036,-0.195083426,0,1,1,1
88,1,89,48,110,128,0,2528.386,64,1824.788,LESS,-1444,2070,626,2,1,18,1.687335229,18,1.571468165,-0.125609888,-0.185797677,238,110,128,1,1.555712144,1.170500555,1.872800887,-0.399348534,-1.199169033,1.199169033,1.872800887,1.170500555,0,0,0
89,1,90,9,59,50,1,1679.873,64,1211.035,LESS,444,628,1072,1,2,-9,-0.843667615,9,0,-0.125609888,-0.878102986,109,59,50,0,-1.017196402,-0.819350388,-1.170500555,-1.255095392,1.095980504,1.095980504,-1.170500555,-0.819350388,0,0,1
90,1,91,44,110,119,0,1513.221,24,1929.333,LESS,-672,1086,414,2,1,9,0.843667615,9,0,-2.183382793,-1.014075051,229,110,119,1,1.376206896,1.170500555,1.521650721,-0.399348534,-0.260686278,0.260686278,1.521650721,1.170500555,0,0,0
91,1,92,2,52,50,1,3359.407,74,1520.963,LESS,974,1046,2020,3,2,-2,-0.187481692,2,-1.222253018,0.388833339,0.492235835,102,52,50,0,-1.156811594,-1.092467184,-1.170500555,0.456398324,1.74027566,1.74027566,-1.170500555,-1.092467184,1,1,1
92,1,93,8,58,50,0,3815.203,74,1109.56,LESS,-556,2110,1554,4,2,-8,-0.749926769,8,-0.174607574,0.388833339,0.8641217,108,58,50,0,-1.037141429,-0.858367073,-1.170500555,1.312145182,-0.119670734,0.119670734,-1.170500555,-0.858367073,1,1,1
93,1,94,44,119,110,0,4747.633,24,1125.921,LESS,98,2082,2180,4,1,-9,-0.843667615,9,0,-2.183382793,1.62489524,229,119,110,0,1.376206896,1.521650721,1.170500555,1.312145182,0.675365176,0.675365176,1.170500555,1.521650721,0,1,1
94,1,95,34,74,80,0,3013.624,100,1360.27,LESS,882,1144,2026,3,2,6,0.562445076,6,-0.523822722,1.726385727,0.210110038,154,74,80,1,-0.119670165,-0.234100111,0,0.456398324,1.628435746,1.628435746,0,-0.234100111,1,1,1
95,1,96,24,86,80,0,3695.847,74,2038.684,LESS,-376,2298,1922,5,2,-6,-0.562445076,6,-0.523822722,0.388833339,0.76673864,166,86,80,0,0.119670165,0.234100111,0,2.16789204,0.099146489,0.099146489,0,0.234100111,1,1,1
96,1,97,39,66,80,0,1818.684,74,1972.947,LESS,-730,1246,516,2,1,14,1.312371845,14,0.87303787,0.388833339,-0.76484651,146,66,80,1,-0.279230385,-0.546233592,0,-0.399348534,-0.331194049,0.331194049,0,-0.546233592,1,0,0
97,1,98,9,50,59,0,3040.837,74,1288.515,LESS,-1704,2296,592,2,2,9,0.843667615,9,0,0.388833339,0.232313239,109,50,59,1,-1.017196402,-1.170500555,-0.819350388,-0.399348534,-1.515238355,1.515238355,-0.819350388,-1.170500555,1,0,0
98,1,99,57,94,110,0,3156.807,100,1195.264,LESS,-1062,2242,1180,1,2,16,1.499853537,16,1.222253018,1.726385727,0.326933647,204,94,110,1,0.877581209,0.546233592,1.170500555,-1.255095392,-0.73479026,0.73479026,1.170500555,0.546233592,1,0,0
99,1,100,60,110,87,1,5926.643,94,1651.209,LESS,-950,3560,2610,3,2,-23,-2.15603946,23,2.444506035,1.417719791,2.586854435,197,110,87,0,0.737966017,1.170500555,0.273116796,0.456398324,-0.598637322,0.598637322,0.273116796,1.170500555,1,1,0
100,1,101,33,75,80,1,4156.099,94,1382.893,LESS,1626,1500,3126,3,2,5,0.46870423,5,-0.698430296,1.417719791,1.142260173,155,75,80,1,-0.099725137,-0.195083426,0,0.456398324,2.532880267,2.532880267,0,-0.195083426,1,1,1
101,1,102,15,50,45,1,2333.893,64,2767.159,LESS,-698,1704,1006,3,1,-5,-0.46870423,5,-0.698430296,-0.125609888,-0.34448533,95,50,45,0,-1.296426786,-1.170500555,-1.36558398,0.456398324,-0.29229321,0.29229321,-1.36558398,-1.170500555,0,1,0
102,1,103,59,89,110,0,2362.993,84,1411.212,LESS,966,832,1798,3,2,21,1.968557767,21,2.095290887,0.903276565,-0.320742519,199,89,110,1,0.777856072,0.351150166,1.170500555,0.456398324,1.73055045,1.73055045,1.170500555,0.351150166,1,1,1
103,1,104,29,80,94,0,1705.088,54,1625.992,LESS,-128,1012,884,1,1,14,1.312371845,14,0.87303787,-0.640053114,-0.857529962,174,80,94,1,0.279230385,0,0.546233592,-1.255095392,0.400627996,0.400627996,0.546233592,0,0,0,1
104,1,105,55,110,98,1,1720.385,64,1479.807,LESS,-840,1380,540,2,1,-12,-1.124890153,12,0.523822722,-0.125609888,-0.845049076,208,110,98,0,0.957361319,1.170500555,0.702300333,-0.399348534,-0.464915685,0.464915685,0.702300333,1.170500555,0,0,0
105,1,106,29,94,80,0,1728.218,24,1289.573,LESS,-586,1148,562,2,1,-14,-1.312371845,14,0.87303787,-2.183382793,-0.838658098,174,94,80,0,0.279230385,0.546233592,0,-0.399348534,-0.156140271,0.156140271,0,0.546233592,0,0,1
106,1,107,57,110,94,1,2498.348,64,1178.775,LESS,-44,1216,1172,3,2,-16,-1.499853537,16,1.222253018,-0.125609888,-0.210305807,204,110,94,0,0.877581209,1.170500555,0.546233592,0.456398324,0.5027427,0.5027427,0.546233592,1.170500555,0,1,1
107,1,108,39,80,66,1,3240.459,54,1331.467,LESS,664,1148,1812,3,2,-14,-1.312371845,14,0.87303787,-0.640053114,0.395185664,146,80,66,0,-0.279230385,0,-0.546233592,0.456398324,1.363423776,1.363423776,-0.546233592,0,0,1,1
108,1,109,4,50,54,1,2765.97,84,1498.413,LESS,538,1174,1712,3,2,4,0.374963384,4,-0.87303787,0.903276565,0.008048103,104,50,54,1,-1.116921539,-1.170500555,-1.014433814,0.456398324,1.21025172,1.21025172,-1.014433814,-1.170500555,1,1,1
109,1,110,55,98,110,1,2998.353,84,982.983,LESS,154,1404,1558,3,2,12,1.124890153,12,0.523822722,0.903276565,0.197650365,208,98,110,1,0.957361319,0.702300333,1.170500555,0.456398324,0.743441645,0.743441645,1.170500555,0.702300333,1,1,1
110,1,111,2,50,52,0,2079.715,54,1525.128,LESS,-808,1406,598,2,1,2,0.187481692,2,-1.222253018,-0.640053114,-0.551870225,102,50,52,1,-1.156811594,-1.170500555,-1.092467184,-0.399348534,-0.426014846,0.426014846,-1.092467184,-1.170500555,0,1,0
111,1,112,59,110,89,1,1666.103,64,1778.183,LESS,-742,1250,508,2,1,-21,-1.968557767,21,2.095290887,-0.125609888,-0.889337987,199,110,89,0,0.777856072,1.170500555,0.351150166,-0.399348534,-0.345781864,0.345781864,0.351150166,1.170500555,0,0,0
112,1,113,60,87,110,0,2426.928,64,901.849,LESS,-1404,1898,494,2,2,23,2.15603946,23,2.444506035,-0.125609888,-0.268577684,197,87,110,1,0.737966017,0.273116796,1.170500555,-0.399348534,-1.150542984,1.150542984,1.170500555,0.273116796,0,0,0
113,1,114,52,110,105,1,3263.299,74,903.194,LESS,-444,1734,1290,3,2,-5,-0.46870423,5,-0.698430296,0.388833339,0.413820916,215,110,105,0,1.096976512,1.170500555,0.975417129,0.456398324,0.016482205,0.016482205,0.975417129,1.170500555,1,1,1
114,1,115,30,80,96,0,1723.836,84,872.135,LESS,328,800,1128,2,2,16,1.499853537,16,1.222253018,0.903276565,-0.842233391,176,80,96,1,0.31912044,0,0.624266962,-0.399348534,0.95496496,0.95496496,0.624266962,0,1,0,1
115,1,116,24,80,86,0,1368.643,94,1116.496,LESS,1122,464,1586,1,2,6,0.562445076,6,-0.523822722,1.417719791,-1.132036846,166,80,86,1,0.119670165,0,0.234100111,-1.255095392,1.920192043,1.920192043,0.234100111,0,1,0,1
116,1,117,5,50,55,0,1990.443,74,1166.408,LESS,-670,1340,670,2,2,5,0.46870423,5,-0.698430296,0.388833339,-0.624707623,105,50,55,1,-1.096976512,-1.170500555,-0.975417129,-0.399348534,-0.258254975,0.258254975,-0.975417129,-1.170500555,1,0,0
117,1,118,34,80,74,0,2997.126,94,929.632,LESS,164,1510,1674,3,2,-6,-0.562445076,6,-0.523822722,1.417719791,0.196649251,154,80,74,0,-0.119670165,0,-0.234100111,0.456398324,0.755598157,0.755598157,-0.234100111,0,1,1,1
118,1,119,15,45,50,0,1573.53,54,1699.412,LESS,-4,802,798,2,1,5,0.46870423,5,-0.698430296,-0.640053114,-0.964868685,95,45,50,1,-1.296426786,-1.36558398,-1.170500555,-0.399348534,0.551368749,0.551368749,-1.170500555,-1.36558398,0,0,1
119,1,120,37,69,80,0,2306.153,64,1397.419,LESS,-982,1696,714,2,1,11,1.031149307,11,0.349215148,-0.125609888,-0.367118513,149,69,80,1,-0.219395302,-0.429183537,0,-0.399348534,-0.637538161,0.637538161,0,-0.429183537,1,0,0
120,1,121,48,128,110,0,1686.53,84,947.11,MORE,-156,1208,1052,2,2,-18,-1.687335229,18,1.571468165,0.903276565,-0.872671512,238,128,110,1,1.555712144,1.872800887,1.170500555,-0.399348534,0.366589761,0.366589761,1.170500555,1.872800887,1,1,1
121,1,122,8,50,58,1,2010.532,74,1007.719,MORE,10,942,952,3,2,8,0.749926769,8,-0.174607574,0.388833339,-0.608316924,108,50,58,0,-1.037141429,-1.170500555,-0.858367073,0.456398324,0.568387867,0.568387867,-0.858367073,-1.170500555,1,1,1
122,1,123,4,54,50,0,2244.929,64,1086.016,MORE,-1434,1996,562,2,1,-4,-0.374963384,4,-0.87303787,-0.125609888,-0.41707143,104,54,50,1,-1.116921539,-1.014433814,-1.170500555,-0.399348534,-1.187012521,1.187012521,-1.170500555,-1.014433814,0,1,0
123,1,124,37,80,69,0,2092.94,74,1731.996,MORE,-848,1684,836,3,1,-11,-1.031149307,11,0.349215148,0.388833339,-0.541079892,149,80,69,1,-0.219395302,0,-0.429183537,0.456398324,-0.474640895,0.474640895,-0.429183537,0,1,1,0
124,1,125,52,105,110,1,1361.319,94,676.792,MORE,628,574,1202,1,2,5,0.46870423,5,-0.698430296,1.417719791,-1.138012528,215,105,110,0,1.096976512,0.975417129,1.170500555,-1.255095392,1.319660332,1.319660332,1.170500555,0.975417129,1,0,1
125,1,126,5,55,50,1,1596.589,74,931.733,MORE,866,616,1482,1,2,-5,-0.46870423,5,-0.698430296,0.388833339,-0.946054751,105,55,50,1,-1.096976512,-0.975417129,-1.170500555,-1.255095392,1.608985326,1.608985326,-1.170500555,-0.975417129,1,0,1
126,1,127,30,96,80,0,2850.121,74,1650.773,MORE,-1778,2456,678,2,1,-16,-1.499853537,16,1.222253018,0.388833339,0.076707256,176,96,80,1,0.31912044,0.624266962,0,-0.399348534,-1.605196547,1.605196547,0,0.624266962,1,1,0
127,1,128,33,80,75,1,1380.897,94,1098.922,MORE,560,530,1090,1,2,-5,-0.46870423,5,-0.698430296,1.417719791,-1.122038756,155,80,75,1,-0.099725137,0,-0.195083426,-1.255095392,1.236996047,1.236996047,-0.195083426,0,1,0,1
128,1,129,48,110,128,1,1391.672,64,1794.924,MORE,-234,1162,928,1,1,18,1.687335229,18,1.571468165,-0.125609888,-1.113247389,238,110,128,0,1.555712144,1.170500555,1.872800887,-1.255095392,0.271768965,0.271768965,1.872800887,1.170500555,0,0,1
129,1,130,9,59,50,0,2101.903,74,1239.822,MORE,-990,1578,588,2,1,-9,-0.843667615,9,0,0.388833339,-0.533766943,109,59,50,1,-1.017196402,-0.819350388,-1.170500555,-0.399348534,-0.647263371,0.647263371,-1.170500555,-0.819350388,1,1,0
130,1,131,44,110,119,1,1582.34,54,1258.389,MORE,28,826,854,1,2,9,0.843667615,9,0,-0.640053114,-0.957680569,229,110,119,0,1.376206896,1.170500555,1.521650721,-1.255095392,0.590269589,0.590269589,1.521650721,1.170500555,0,0,1
131,1,132,2,52,50,0,2320.312,74,1463.68,MORE,-1118,1626,508,2,1,-2,-0.187481692,2,-1.222253018,0.388833339,-0.355566125,102,52,50,1,-1.156811594,-1.092467184,-1.170500555,-0.399348534,-0.80286673,0.80286673,-1.170500555,-1.092467184,1,1,0
132,1,133,8,58,50,0,2184.782,64,1365.006,MORE,-572,1342,770,2,1,-8,-0.749926769,8,-0.174607574,-0.125609888,-0.46614562,108,58,50,1,-1.037141429,-0.858367073,-1.170500555,-0.399348534,-0.139121154,0.139121154,-1.170500555,-0.858367073,0,1,0
133,1,134,44,119,110,0,2602.684,24,1035.977,MORE,-1200,2076,876,2,1,-9,-0.843667615,9,0,-2.183382793,-0.125177628,229,119,110,1,1.376206896,1.521650721,1.170500555,-0.399348534,-0.902550131,0.902550131,1.170500555,1.521650721,0,1,0
134,1,135,34,74,80,1,2890.742,64,1896.005,MORE,-574,1792,1218,3,1,6,0.562445076,6,-0.523822722,-0.125609888,0.1098501,154,74,80,0,-0.119670165,-0.234100111,0,0.456398324,-0.141552456,0.141552456,0,-0.234100111,0,1,0
135,1,136,24,86,80,1,1954.547,84,1049.551,MORE,274,1024,1298,1,2,-6,-0.562445076,6,-0.523822722,0.903276565,-0.65399532,166,86,80,1,0.119670165,0.234100111,0,-1.255095392,0.889319793,0.889319793,0,0.234100111,1,0,1
136,1,137,39,66,80,1,1901.984,64,1813.237,MORE,124,1098,1222,1,1,14,1.312371845,14,0.87303787,-0.125609888,-0.696881692,146,66,80,0,-0.279230385,-0.546233592,0,-1.255095392,0.706972108,0.706972108,0,-0.546233592,0,0,1
137,1,138,9,50,59,1,3133.506,44,953.615,MORE,-398,1646,1248,3,1,9,0.843667615,9,0,-1.15449634,0.307922264,109,50,59,0,-1.017196402,-1.170500555,-0.819350388,0.456398324,0.072402162,0.072402162,-0.819350388,-1.170500555,0,1,0
138,1,139,57,94,110,1,2545.418,64,2154.544,MORE,336,1248,1584,3,2,16,1.499853537,16,1.222253018,-0.125609888,-0.171901197,204,94,110,0,0.877581209,0.546233592,1.170500555,0.456398324,0.96469017,0.96469017,1.170500555,0.546233592,0,1,1
139,1,140,60,110,87,0,2023.468,74,1120.839,MORE,-952,1604,652,2,2,-23,-2.15603946,23,2.444506035,0.388833339,-0.597762387,197,110,87,1,0.737966017,1.170500555,0.273116796,-0.399348534,-0.601068624,0.601068624,0.273116796,1.170500555,1,1,0
140,1,141,33,75,80,1,3330.755,84,846.965,MORE,430,1490,1920,3,2,5,0.46870423,5,-0.698430296,0.903276565,0.468858549,155,75,80,0,-0.099725137,-0.195083426,0,0.456398324,1.078961387,1.078961387,0,-0.195083426,1,1,1
141,1,142,15,50,45,0,1866.57,54,2507.707,MORE,-1126,1720,594,2,1,-5,-0.46870423,5,-0.698430296,-0.640053114,-0.725776122,95,50,45,1,-1.296426786,-1.170500555,-1.36558398,-0.399348534,-0.81259194,0.81259194,-1.36558398,-1.170500555,0,1,0
142,1,143,59,89,110,1,1604.858,74,1110.665,MORE,294,784,1078,1,2,21,1.968557767,21,2.095290887,0.388833339,-0.939308039,199,89,110,0,0.777856072,0.351150166,1.170500555,-1.255095392,0.913632818,0.913632818,1.170500555,0.351150166,1,0,1
143,1,144,29,80,94,1,2458.127,70,1505.018,MORE,838,1266,2104,3,2,14,1.312371845,14,0.87303787,0.183056048,-0.24312229,174,80,94,0,0.279230385,0,0.546233592,0.456398324,1.574947092,1.574947092,0.546233592,0,0,1,1
144,1,145,55,110,98,0,4970.636,64,2027.965,MORE,-1374,2898,1524,4,1,-12,-1.124890153,12,0.523822722,-0.125609888,1.806844321,208,110,98,1,0.957361319,1.170500555,0.702300333,1.312145182,-1.114073446,1.114073446,0.702300333,1.170500555,0,1,0
145,1,146,29,94,80,0,3115.157,64,1281.616,MORE,-1762,2416,654,2,1,-14,-1.312371845,14,0.87303787,-0.125609888,0.292951238,174,94,80,1,0.279230385,0.546233592,0,-0.399348534,-1.585746127,1.585746127,0,0.546233592,0,1,0
146,1,147,57,110,94,0,3128.098,64,1306.006,MORE,-1426,2218,792,2,1,-16,-1.499853537,16,1.222253018,-0.125609888,0.303509854,204,110,94,1,0.877581209,1.170500555,0.546233592,-0.399348534,-1.177287311,1.177287311,0.546233592,1.170500555,0,0,0
147,1,148,39,80,66,0,3745.136,80,1356.805,MORE,-1382,2860,1478,2,2,-14,-1.312371845,14,0.87303787,0.697499274,0.806953741,146,80,66,1,-0.279230385,0,-0.546233592,-0.399348534,-1.123798656,1.123798656,-0.546233592,0,1,0,0
148,1,149,4,50,54,1,3673.352,64,1957.847,MORE,-686,2190,1504,3,1,4,0.374963384,4,-0.87303787,-0.125609888,0.748384875,104,50,54,0,-1.116921539,-1.170500555,-1.014433814,0.456398324,-0.277705395,0.277705395,-1.014433814,-1.170500555,0,1,0
149,1,150,55,98,110,1,4942.765,74,1805.4,MORE,-1618,3112,1494,2,2,12,1.124890153,12,0.523822722,0.388833339,1.784104256,208,98,110,0,0.957361319,0.702300333,1.170500555,-0.399348534,-1.410692349,1.410692349,1.170500555,0.702300333,1,0,0
150,1,151,2,50,52,0,2224.593,74,1510.151,MORE,-1022,1600,578,2,1,2,0.187481692,2,-1.222253018,0.388833339,-0.433663658,102,50,52,0,-1.156811594,-1.170500555,-1.092467184,-0.399348534,-0.686164211,0.686164211,-1.092467184,-1.170500555,1,0,0
151,1,152,59,110,89,1,2997.098,4,1262.236,MORE,-2028,3020,992,2,1,-21,-1.968557767,21,2.095290887,-3.212269245,0.196626405,199,110,89,1,0.777856072,1.170500555,0.351150166,-0.399348534,-1.909109356,1.909109356,0.351150166,1.170500555,0,0,0
152,1,153,60,87,110,1,1391.738,84,1035.328,MORE,460,696,1156,1,2,23,2.15603946,23,2.444506035,0.903276565,-1.113193539,197,87,110,0,0.737966017,0.273116796,1.170500555,-1.255095392,1.115430924,1.115430924,1.170500555,0.273116796,1,0,1
153,1,154,52,110,105,0,3340.985,100,835.78,MORE,-940,2234,1294,2,2,-5,-0.46870423,5,-0.698430296,1.726385727,0.477205248,215,110,105,1,1.096976512,1.170500555,0.975417129,-0.399348534,-0.586480809,0.586480809,0.975417129,1.170500555,1,0,0
154,1,155,30,80,96,1,1648.785,84,747.819,MORE,48,970,1018,1,2,16,1.499853537,16,1.222253018,0.903276565,-0.903467816,176,80,96,0,0.31912044,0,0.624266962,-1.255095392,0.614582614,0.614582614,0.624266962,0,1,0,1
155,1,156,24,80,86,0,1990.089,44,1589.569,MORE,-1548,2114,566,2,1,6,0.562445076,6,-0.523822722,-1.15449634,-0.624996453,166,80,86,0,0.119670165,0,0.234100111,-0.399348534,-1.325596762,1.325596762,0.234100111,0,0,0,0
156,1,157,5,50,55,1,2490.532,74,893.86,MORE,362,1096,1458,2,2,5,0.46870423,5,-0.698430296,0.388833339,-0.216682915,105,50,55,0,-1.096976512,-1.170500555,-0.975417129,-0.399348534,0.996297102,0.996297102,-0.975417129,-1.170500555,1,0,1
157,1,158,34,80,74,0,2508.017,64,2009.535,MORE,-1012,1672,660,2,1,-6,-0.562445076,6,-0.523822722,-0.125609888,-0.20241683,154,80,74,1,-0.119670165,0,-0.234100111,-0.399348534,-0.674007698,0.674007698,-0.234100111,0,0,0,0
158,1,159,15,45,50,1,2293.524,64,2147.895,MORE,-302,1312,1010,3,1,5,0.46870423,5,-0.698430296,-0.125609888,-0.377422566,95,45,50,0,-1.296426786,-1.36558398,-1.170500555,0.456398324,0.18910468,0.18910468,-1.170500555,-1.36558398,0,1,0
159,1,160,37,69,80,1,3004.818,24,800.012,MORE,-898,1828,930,3,2,11,1.031149307,11,0.349215148,-2.183382793,0.202925186,149,69,80,0,-0.219395302,-0.429183537,0,0.456398324,-0.535423457,0.535423457,0,-0.429183537,0,1,0
160,1,161,3,50,53,0,2773.406,54,1318.667,LESS,-514,1546,1032,4,1,3,0.281222538,3,-1.047645444,-0.640053114,0.014115166,103,50,53,1,-1.136866566,-1.170500555,-1.053450499,1.312145182,-0.068613382,0.068613382,-1.053450499,-1.170500555,0,1,1
161,1,162,20,50,40,1,2122.486,84,813.427,LESS,986,646,1632,1,2,-10,-0.937408461,10,0.174607574,0.903276565,-0.516973187,90,50,40,0,-1.396151924,-1.170500555,-1.560667406,-1.255095392,1.754863475,1.754863475,-1.560667406,-1.170500555,1,0,1
162,1,163,25,80,88,0,1541.291,64,889.138,LESS,-644,1088,444,2,1,8,0.749926769,8,-0.174607574,-0.125609888,-0.99117262,168,80,88,1,0.15956022,0,0.312133481,-0.399348534,-0.226648043,0.226648043,0.312133481,0,0,0,1
163,1,164,42,115,110,0,1792.184,4,970.264,LESS,-1446,1990,544,2,1,-5,-0.46870423,5,-0.698430296,-3.212269245,-0.786467971,225,115,110,0,1.296426786,1.36558398,1.170500555,-0.399348534,-1.201600336,1.201600336,1.170500555,1.36558398,0,0,0
164,1,165,53,103,110,0,1719.123,54,1986.11,LESS,-1332,1834,502,2,1,7,0.656185922,7,-0.349215148,-0.640053114,-0.846078747,213,103,110,1,1.057086457,0.897383758,1.170500555,-0.399348534,-1.063016095,1.063016095,1.170500555,0.897383758,0,0,0
165,1,166,26,90,80,1,5485.479,4,2758.424,LESS,-1090,3638,2548,4,1,-10,-0.937408461,10,0.174607574,-3.212269245,2.22690688,170,90,80,0,0.199450275,0.390166852,0,1.312145182,-0.768828495,0.768828495,0,0.390166852,0,1,0
166,1,167,35,80,72,1,4941.353,74,1431.467,LESS,-784,2636,1852,5,2,-8,-0.749926769,8,-0.174607574,0.388833339,1.782952199,152,80,72,0,-0.15956022,0,-0.312133481,2.16789204,-0.396839216,0.396839216,-0.312133481,0,1,1,0
167,1,168,28,93,80,1,1580.206,64,2648.327,LESS,-650,1388,738,3,1,-13,-1.218630999,13,0.698430296,-0.125609888,-0.959421709,173,93,80,0,0.259285357,0.507216907,0,0.456398324,-0.23394195,0.23394195,0,0.507216907,0,1,1
168,1,169,26,80,90,0,3148.962,64,1415.512,LESS,-82,1546,1464,4,1,10,0.937408461,10,0.174607574,-0.125609888,0.320532879,170,80,90,1,0.199450275,0,0.390166852,1.312145182,0.456547953,0.456547953,0.390166852,0,0,1,1
169,1,170,25,88,80,1,2129.2,64,1067.862,LESS,-166,1114,948,3,2,-8,-0.749926769,8,-0.174607574,-0.125609888,-0.511495206,168,88,80,0,0.15956022,0.312133481,0,0.456398324,0.354433249,0.354433249,0,0.312133481,0,1,1
170,1,171,36,80,70,0,1528.68,44,1224.553,LESS,-974,1490,516,2,1,-10,-0.937408461,10,0.174607574,-1.15449634,-1.001461988,150,80,70,0,-0.199450275,0,-0.390166852,-0.399348534,-0.627812951,0.627812951,-0.390166852,0,0,0,0
171,1,172,28,80,93,0,1442.214,94,877.346,LESS,284,786,1070,2,2,13,1.218630999,13,0.698430296,1.417719791,-1.072009959,173,80,93,1,0.259285357,0,0.507216907,-0.399348534,0.901476306,0.901476306,0.507216907,0,1,0,1
172,1,173,21,82,80,0,1628.017,34,1046.34,LESS,-990,1626,636,2,1,-2,-0.187481692,2,-1.222253018,-1.668939567,-0.920412514,162,82,80,0,0.039890055,0.07803337,0,-0.399348534,-0.647263371,0.647263371,0,0.07803337,0,0,0
173,1,174,19,50,41,1,2346.231,64,2004.1,LESS,-230,1232,1002,3,2,-9,-0.843667615,9,0,-0.125609888,-0.334418705,91,50,41,0,-1.376206896,-1.170500555,-1.521650721,0.456398324,0.27663157,0.27663157,-1.521650721,-1.170500555,0,1,1
174,1,175,56,96,110,0,3316.339,74,1293.82,LESS,-750,2054,1304,4,1,14,1.312371845,14,0.87303787,0.388833339,0.457096474,206,96,110,1,0.917471264,0.624266962,1.170500555,1.312145182,-0.355507074,0.355507074,1.170500555,0.624266962,1,1,0
175,1,176,23,80,85,0,3031.183,74,1120.025,LESS,-868,1766,898,1,1,5,0.46870423,5,-0.698430296,0.388833339,0.2244365,165,80,85,1,0.099725137,0,0.195083426,-1.255095392,-0.49895392,0.49895392,0.195083426,0,1,0,0
176,1,177,10,60,50,0,2266.764,64,1075.631,LESS,-902,1552,650,2,1,-10,-0.937408461,10,0.174607574,-0.125609888,-0.399256163,110,60,50,0,-0.997251374,-0.780333703,-1.170500555,-0.399348534,-0.540286062,0.540286062,-1.170500555,-0.780333703,1,0,0
177,1,178,19,41,50,0,1321.42,100,742.828,LESS,546,722,1268,3,2,9,0.843667615,9,0,1.726385727,-1.17056629,91,41,50,1,-1.376206896,-1.521650721,-1.170500555,0.456398324,1.21997693,1.21997693,-1.170500555,-1.521650721,1,1,1
178,1,179,56,110,96,1,2265.431,64,1102.483,LESS,-918,1634,716,3,2,-14,-1.312371845,14,0.87303787,-0.125609888,-0.400343763,206,110,96,0,0.917471264,1.170500555,0.624266962,0.456398324,-0.559736482,0.559736482,0.624266962,1.170500555,1,1,0
179,1,180,35,72,80,0,4164.13,64,1025.624,LESS,-510,2232,1722,4,1,8,0.749926769,8,-0.174607574,-0.125609888,1.1488127,152,72,80,1,-0.15956022,-0.312133481,0,1.312145182,-0.063750777,0.063750777,0,-0.312133481,0,1,1
180,1,181,11,49,50,0,2726.392,54,1155.84,LESS,-1320,2026,706,2,1,1,0.093740846,1,-1.396860592,-0.640053114,-0.024243753,99,49,50,1,-1.216646676,-1.20951724,-1.170500555,-0.399348534,-1.04842828,1.04842828,-1.170500555,-1.20951724,0,0,0
181,1,182,17,43,50,1,2464.949,84,739.11,LESS,-436,1472,1036,2,2,7,0.656185922,7,-0.349215148,0.903276565,-0.237556191,93,43,50,1,-1.336316841,-1.443617351,-1.170500555,-0.399348534,0.026207415,0.026207415,-1.170500555,-1.443617351,1,0,1
182,1,183,1,51,50,1,1844.314,74,1503.046,LESS,86,920,1006,1,2,-1,-0.093740846,1,-1.396860592,0.388833339,-0.743934886,101,51,50,0,-1.176756621,-1.131483869,-1.170500555,-1.255095392,0.660777361,0.660777361,-1.170500555,-1.131483869,1,0,1
183,1,184,41,112,110,1,4667.099,84,1290.065,LESS,802,1590,2392,4,2,-2,-0.187481692,2,-1.222253018,0.903276565,1.559187212,222,112,110,0,1.236591704,1.248533925,1.170500555,1.312145182,1.531183647,1.531183647,1.170500555,1.248533925,1,1,1
184,1,185,20,40,50,0,3192.227,80,1272.118,LESS,-358,1968,1610,2,2,10,0.937408461,10,0.174607574,0.697499274,0.355832973,90,40,50,1,-1.396151924,-1.560667406,-1.170500555,-0.399348534,0.121028211,0.121028211,-1.170500555,-1.560667406,1,0,1
185,1,186,1,50,51,0,2169.18,74,1218.199,LESS,-926,1538,612,2,1,1,0.093740846,1,-1.396860592,0.388833339,-0.478875357,101,50,51,1,-1.176756621,-1.170500555,-1.131483869,-0.399348534,-0.569461692,0.569461692,-1.131483869,-1.170500555,1,0,0
186,1,187,23,85,80,1,2349.446,74,2338.112,LESS,-870,1736,866,3,1,-5,-0.46870423,5,-0.698430296,0.388833339,-0.331795573,165,85,80,0,0.099725137,0.195083426,0,0.456398324,-0.501385223,0.501385223,0,0.195083426,1,1,0
187,1,188,11,50,49,0,3171.303,84,1148.621,LESS,-824,2006,1182,4,2,-1,-0.093740846,1,-1.396860592,0.903276565,0.338760994,99,50,49,0,-1.216646676,-1.170500555,-1.20951724,1.312145182,-0.445465266,0.445465266,-1.20951724,-1.170500555,1,1,0
188,1,189,17,50,43,0,2993.885,84,824.794,LESS,-1362,2340,978,2,2,-7,-0.656185922,7,-0.349215148,0.903276565,0.194004905,93,50,43,0,-1.336316841,-1.170500555,-1.443617351,-0.399348534,-1.099485632,1.099485632,-1.443617351,-1.170500555,1,0,0
189,1,190,21,80,82,0,2046.197,74,1904.786,LESS,-1160,1766,606,2,1,2,0.187481692,2,-1.222253018,0.388833339,-0.579217701,162,80,82,1,0.039890055,0,0.07803337,-0.399348534,-0.853924082,0.853924082,0.07803337,0,1,0,0
190,1,191,10,50,60,0,2000.771,84,944.253,LESS,-698,1600,902,2,2,10,0.937408461,10,0.174607574,0.903276565,-0.616280965,110,50,60,1,-0.997251374,-1.170500555,-0.780333703,-0.399348534,-0.29229321,0.29229321,-0.780333703,-1.170500555,1,0,0
191,1,192,3,53,50,1,3949.34,0,1103.534,LESS,-1192,2932,1740,4,1,-3,-0.281222538,3,-1.047645444,-3.418046536,0.97356464,103,53,50,0,-1.136866566,-1.053450499,-1.170500555,1.312145182,-0.892824921,0.892824921,-1.170500555,-1.053450499,0,1,0
192,1,193,45,122,110,1,2302.897,64,1668.531,LESS,-954,1710,756,3,2,-12,-1.124890153,12,0.523822722,-0.125609888,-0.369775097,232,122,110,0,1.436041979,1.638700776,1.170500555,0.456398324,-0.603499927,0.603499927,1.170500555,1.638700776,0,1,0
193,1,194,38,67,80,0,1967.521,64,1759.361,LESS,-996,1610,614,2,1,13,1.218630999,13,0.698430296,-0.125609888,-0.643409779,147,67,80,1,-0.259285357,-0.507216907,0,-0.399348534,-0.654557279,0.654557279,0,-0.507216907,0,0,0
194,1,195,38,80,67,0,5436.005,64,1471.998,LESS,-1502,3344,1842,3,2,-13,-1.218630999,13,0.698430296,-0.125609888,2.186540837,147,80,67,0,-0.259285357,0,-0.507216907,0.456398324,-1.269676805,1.269676805,-0.507216907,0,0,1,0
195,1,196,36,70,80,0,1555.042,74,1102.927,LESS,-608,1266,658,2,2,10,0.937408461,10,0.174607574,0.388833339,-0.979953122,150,70,80,1,-0.199450275,-0.390166852,0,-0.399348534,-0.182884598,0.182884598,0,-0.390166852,1,0,1
196,1,197,45,110,122,0,1991.723,74,1501.471,LESS,-158,1348,1190,2,2,12,1.124890153,12,0.523822722,0.388833339,-0.623663266,232,110,122,1,1.436041979,1.170500555,1.638700776,-0.399348534,0.364158459,0.364158459,1.638700776,1.170500555,1,0,1
197,1,198,42,110,115,0,3401.665,74,1125.329,LESS,-676,1924,1248,4,1,5,0.46870423,5,-0.698430296,0.388833339,0.526714314,225,110,115,1,1.296426786,1.170500555,1.36558398,1.312145182,-0.265548882,0.265548882,1.36558398,1.170500555,1,1,0
198,1,199,41,110,112,1,4202.816,74,712.398,LESS,-930,2248,1318,2,2,2,0.187481692,2,-1.222253018,0.388833339,1.180376769,222,110,112,1,1.236591704,1.170500555,1.248533925,-0.399348534,-0.574324297,0.574324297,1.248533925,1.170500555,1,0,0
199,1,200,53,110,103,1,2110.906,44,1689.99,LESS,-212,1486,1274,4,1,-7,-0.656185922,7,-0.349215148,-1.15449634,-0.526421357,213,110,103,0,1.057086457,1.170500555,0.897383758,1.312145182,0.298513292,0.298513292,0.897383758,1.170500555,0,1,1
200,1,201,3,50,53,1,3496.366,84,432.927,MORE,538,1100,1638,3,1,3,0.281222538,3,-1.047645444,0.903276565,0.603981257,103,50,53,0,-1.136866566,-1.170500555,-1.053450499,0.456398324,1.21025172,1.21025172,-1.053450499,-1.170500555,1,1,1
201,1,202,20,50,40,1,2849.513,44,1664.501,MORE,-398,1728,1330,4,1,-10,-0.937408461,10,0.174607574,-1.15449634,0.076211186,90,50,40,1,-1.396151924,-1.170500555,-1.560667406,1.312145182,0.072402162,0.072402162,-1.560667406,-1.170500555,0,1,0
202,1,203,25,80,88,1,1540.393,84,738.904,MORE,704,510,1214,1,2,8,0.749926769,8,-0.174607574,0.903276565,-0.991905302,168,80,88,0,0.15956022,0,0.312133481,-1.255095392,1.412049826,1.412049826,0.312133481,0,1,0,1
203,1,204,42,115,110,0,2342.863,94,908.769,MORE,-424,1676,1252,2,2,-5,-0.46870423,5,-0.698430296,1.417719791,-0.33716667,225,115,110,1,1.296426786,1.36558398,1.170500555,-0.399348534,0.040795229,0.040795229,1.170500555,1.36558398,1,0,0
204,1,205,53,103,110,1,2502.521,74,987.566,MORE,734,1164,1898,3,2,7,0.656185922,7,-0.349215148,0.388833339,-0.206901039,213,103,110,0,1.057086457,0.897383758,1.170500555,0.456398324,1.448519363,1.448519363,1.170500555,0.897383758,1,1,1
205,1,206,26,90,80,0,1799.627,74,1023.062,MORE,-412,1320,908,2,2,-10,-0.937408461,10,0.174607574,0.388833339,-0.780395196,170,90,80,1,0.199450275,0.390166852,0,-0.399348534,0.055383044,0.055383044,0,0.390166852,1,1,0
206,1,207,35,80,72,1,5352.23,74,1152.651,MORE,-1290,3068,1778,3,2,-8,-0.749926769,8,-0.174607574,0.388833339,2.118188463,152,80,72,1,-0.15956022,0,-0.312133481,0.456398324,-1.011958743,1.011958743,-0.312133481,0,1,1,0
207,1,208,28,93,80,0,2424.21,54,2050.051,MORE,-1682,2104,422,2,1,-13,-1.218630999,13,0.698430296,-0.640053114,-0.270795312,173,93,80,1,0.259285357,0.507216907,0,-0.399348534,-1.488494028,1.488494028,0,0.507216907,0,0,0
208,1,209,26,80,90,1,1269.404,94,2162.822,MORE,620,850,1470,1,2,10,0.937408461,10,0.174607574,1.417719791,-1.213006362,170,80,90,0,0.199450275,0,0.390166852,-1.255095392,1.309935122,1.309935122,0.390166852,0,1,0,1
209,1,210,25,88,80,0,2779.274,64,1320.794,MORE,154,1314,1468,4,1,-8,-0.749926769,8,-0.174607574,-0.125609888,0.018902892,168,88,80,1,0.15956022,0.312133481,0,1.312145182,0.743441645,0.743441645,0,0.312133481,0,1,1
210,1,211,36,80,70,0,2537.132,74,992.259,MORE,-1214,1742,528,2,1,-10,-0.937408461,10,0.174607574,0.388833339,-0.178661779,150,80,70,1,-0.199450275,0,-0.390166852,-0.399348534,-0.919569248,0.919569248,-0.390166852,0,1,0,0
211,1,212,28,80,93,1,2351.272,54,1543.057,MORE,124,1088,1212,3,2,13,1.218630999,13,0.698430296,-0.640053114,-0.330305732,173,80,93,0,0.259285357,0,0.507216907,0.456398324,0.706972108,0.706972108,0.507216907,0,0,1,1
212,1,213,21,82,80,0,2358.716,64,1835.591,MORE,-798,1616,818,2,1,-2,-0.187481692,2,-1.222253018,-0.125609888,-0.324232141,162,82,80,1,0.039890055,0.07803337,0,-0.399348534,-0.413858333,0.413858333,0,0.07803337,0,0,0
213,1,214,19,50,41,0,2684.724,94,777.501,MORE,-130,1620,1490,4,2,-9,-0.843667615,9,0,1.417719791,-0.058240849,91,50,41,1,-1.376206896,-1.170500555,-1.521650721,1.312145182,0.398196693,0.398196693,-1.521650721,-1.170500555,1,1,1
214,1,215,56,96,110,1,1983.477,54,1333.025,MORE,-206,1164,958,3,2,14,1.312371845,14,0.87303787,-0.640053114,-0.630391212,206,96,110,0,0.917471264,0.624266962,1.170500555,0.456398324,0.305807199,0.305807199,1.170500555,0.624266962,0,1,1
215,1,216,23,80,85,1,4650.79,74,1294.437,MORE,-186,2200,2014,3,2,5,0.46870423,5,-0.698430296,0.388833339,1.545880631,165,80,85,0,0.099725137,0,0.195083426,0.456398324,0.330120224,0.330120224,0.195083426,0,1,1,1
216,1,217,10,60,50,0,3835.065,74,1112.861,MORE,-1362,2464,1102,4,1,-10,-0.937408461,10,0.174607574,0.388833339,0.880327189,110,60,50,1,-0.997251374,-0.780333703,-1.170500555,1.312145182,-1.099485632,1.099485632,-1.170500555,-0.780333703,1,1,0
217,1,218,19,41,50,1,3849.206,74,1285.45,MORE,-844,2306,1462,3,2,9,0.843667615,9,0,0.388833339,0.89186489,91,41,50,0,-1.376206896,-1.521650721,-1.170500555,0.456398324,-0.46977829,0.46977829,-1.170500555,-1.521650721,1,1,0
218,1,219,56,110,96,0,3243.343,94,856.525,MORE,-1114,2346,1232,2,2,-14,-1.312371845,14,0.87303787,1.417719791,0.397538732,206,110,96,1,0.917471264,1.170500555,0.624266962,-0.399348534,-0.798004125,0.798004125,0.624266962,1.170500555,1,0,0
219,1,220,35,72,80,1,1644.584,74,911.53,MORE,-192,954,762,1,2,8,0.749926769,8,-0.174607574,0.388833339,-0.906895429,152,72,80,0,-0.15956022,-0.312133481,0,-1.255095392,0.322826317,0.322826317,0,-0.312133481,1,0,1
220,1,221,11,49,50,1,1274.981,84,1153.684,MORE,798,452,1250,1,2,1,0.093740846,1,-1.396860592,0.903276565,-1.208456064,99,49,50,0,-1.216646676,-1.20951724,-1.170500555,-1.255095392,1.526321042,1.526321042,-1.170500555,-1.20951724,1,0,1
221,1,222,17,43,50,1,2589.055,84,1447.478,MORE,1496,1084,2580,3,2,7,0.656185922,7,-0.349215148,0.903276565,-0.136297586,93,43,50,0,-1.336316841,-1.443617351,-1.170500555,0.456398324,2.374845606,2.374845606,-1.170500555,-1.443617351,1,1,1
222,1,223,1,51,50,0,2300.565,64,1864.028,MORE,-1120,1764,644,2,1,-1,-0.093740846,1,-1.396860592,-0.125609888,-0.371677785,101,51,50,1,-1.176756621,-1.131483869,-1.170500555,-0.399348534,-0.805298032,0.805298032,-1.170500555,-1.131483869,0,0,0
223,1,224,41,112,110,0,2922.026,84,666.538,MORE,-1002,1912,910,2,2,-2,-0.187481692,2,-1.222253018,0.903276565,0.135374846,222,112,110,1,1.236591704,1.248533925,1.170500555,-0.399348534,-0.661851186,0.661851186,1.170500555,1.248533925,1,0,0
224,1,225,20,40,50,1,1135.847,64,1704.19,MORE,478,398,876,1,2,10,0.937408461,10,0.174607574,-0.125609888,-1.321976077,90,40,50,0,-1.396151924,-1.560667406,-1.170500555,-1.255095392,1.137312646,1.137312646,-1.170500555,-1.560667406,0,0,1
225,1,226,1,50,51,1,1991.672,74,1875.281,MORE,104,964,1068,3,2,1,0.093740846,1,-1.396860592,0.388833339,-0.623704877,101,50,51,0,-1.176756621,-1.170500555,-1.131483869,0.456398324,0.682659083,0.682659083,-1.131483869,-1.170500555,1,1,1
226,1,227,23,85,80,0,1851.808,94,874.096,MORE,-572,1508,936,2,2,-5,-0.46870423,5,-0.698430296,1.417719791,-0.7378205,165,85,80,1,0.099725137,0.195083426,0,-0.399348534,-0.139121154,0.139121154,0,0.195083426,1,0,0
227,1,228,11,50,49,1,1321.034,64,1625.473,MORE,170,582,752,1,2,-1,-0.093740846,1,-1.396860592,-0.125609888,-1.170881229,99,50,49,1,-1.216646676,-1.170500555,-1.20951724,-1.255095392,0.762892065,0.762892065,-1.20951724,-1.170500555,0,0,1
228,1,229,17,50,43,1,4003.124,84,710.547,MORE,-558,2450,1892,5,2,-7,-0.656185922,7,-0.349215148,0.903276565,1.01744723,93,50,43,1,-1.336316841,-1.170500555,-1.443617351,2.16789204,-0.122102036,0.122102036,-1.443617351,-1.170500555,1,1,0
229,1,230,21,80,82,0,1954.281,64,1126.757,MORE,-966,1518,552,2,1,2,0.187481692,2,-1.222253018,-0.125609888,-0.65421235,162,80,82,0,0.039890055,0,0.07803337,-0.399348534,-0.618087741,0.618087741,0.07803337,0,0,0,0
230,1,231,10,50,60,1,2030.128,84,954.748,MORE,644,914,1558,3,2,10,0.937408461,10,0.174607574,0.903276565,-0.592328466,110,50,60,0,-0.997251374,-1.170500555,-0.780333703,0.456398324,1.339110751,1.339110751,-0.780333703,-1.170500555,1,1,1
231,1,232,3,53,50,0,1964.125,74,876.316,MORE,-798,1458,660,2,2,-3,-0.281222538,3,-1.047645444,0.388833339,-0.64618059,103,53,50,1,-1.136866566,-1.053450499,-1.170500555,-0.399348534,-0.413858333,0.413858333,-1.170500555,-1.053450499,1,0,0
232,1,233,45,122,110,0,2014.069,34,984.045,MORE,-1062,1572,510,2,1,-12,-1.124890153,12,0.523822722,-1.668939567,-0.605431071,232,122,110,1,1.436041979,1.638700776,1.170500555,-0.399348534,-0.73479026,0.73479026,1.170500555,1.638700776,0,0,0
233,1,234,38,67,80,1,1598.829,64,1315.51,MORE,160,694,854,1,2,13,1.218630999,13,0.698430296,-0.125609888,-0.944227125,147,67,80,0,-0.259285357,-0.507216907,0,-1.255095392,0.750735552,0.750735552,0,-0.507216907,0,0,1
234,1,235,38,80,67,1,1453.603,64,1718.613,MORE,170,724,894,1,1,-13,-1.218630999,13,0.698430296,-0.125609888,-1.062717627,147,80,67,1,-0.259285357,0,-0.507216907,-1.255095392,0.762892065,0.762892065,-0.507216907,0,0,0,1
235,1,236,36,70,80,1,1977.727,54,1440.858,MORE,-852,1508,656,3,2,10,0.937408461,10,0.174607574,-0.640053114,-0.635082661,150,70,80,0,-0.199450275,-0.390166852,0,0.456398324,-0.4795035,0.4795035,0,-0.390166852,0,1,0
236,1,237,45,110,122,1,1623.897,84,1477.973,MORE,822,576,1398,1,2,12,1.124890153,12,0.523822722,0.903276565,-0.923774039,232,110,122,0,1.436041979,1.170500555,1.638700776,-1.255095392,1.555496672,1.555496672,1.638700776,1.170500555,1,0,1
237,1,238,42,110,115,1,2901.364,64,2333.854,MORE,-650,1714,1064,3,2,5,0.46870423,5,-0.698430296,-0.125609888,0.118516634,225,110,115,0,1.296426786,1.170500555,1.36558398,0.456398324,-0.23394195,0.23394195,1.36558398,1.170500555,0,1,0
238,1,239,41,110,112,1,1565.164,74,810.788,MORE,142,794,936,1,2,2,0.187481692,2,-1.222253018,0.388833339,-0.97169454,222,110,112,0,1.236591704,1.170500555,1.248533925,-1.255095392,0.72885383,0.72885383,1.248533925,1.170500555,1,0,1
239,1,240,53,110,103,1,1559.884,94,647.066,MORE,772,710,1482,1,2,-7,-0.656185922,7,-0.349215148,1.417719791,-0.976002514,213,110,103,1,1.057086457,1.170500555,0.897383758,-1.255095392,1.49471411,1.49471411,0.897383758,1.170500555,1,0,1
240,2,1,49,110,131,1,6228.547,44,2706.716,MORE,-774,2818,2044,0,1,21,1.968557767,21,2.095290887,-0.238386647,-0.382701548,241,110,131,0,1.615547226,1.170500555,1.989850943,-1.24530331,0.086157659,0.086157659,1.989850943,1.170500555,0,0,0
241,2,2,13,47,50,1,6635.751,54,1508.988,MORE,-100,2964,2864,1,2,3,0.281222538,3,-1.047645444,0.386207188,-0.337703317,97,47,50,0,-1.256536731,-1.28755061,-1.170500555,-0.964934835,0.257853106,0.257853106,-1.170500555,-1.28755061,1,0,1
242,2,3,16,50,44,0,4766.744,64,1664.542,MORE,-2342,3374,1032,1,1,-6,-0.562445076,6,-0.523822722,1.010801022,-0.544238639,94,50,44,1,-1.316371814,-1.170500555,-1.404600665,-0.964934835,-0.313276261,0.313276261,-1.404600665,-1.170500555,1,0,0
243,2,4,7,57,50,0,10945.402,44,3357.675,MORE,-3794,6598,2804,3,1,-7,-0.656185922,7,-0.349215148,-0.238386647,0.138536291,107,57,50,1,-1.057086457,-0.897383758,-1.170500555,-0.404197885,-0.683160222,0.683160222,-1.170500555,-0.897383758,0,1,0
244,2,5,18,42,50,1,5673.265,54,1448.471,MORE,-2798,4022,1224,1,2,8,0.749926769,8,-0.174607574,0.386207188,-0.444063195,92,42,50,0,-1.356261869,-1.482634036,-1.170500555,-0.964934835,-0.429438166,0.429438166,-1.170500555,-1.482634036,1,0,0
245,2,6,51,108,110,1,46657.359,44,2199.183,MORE,19840,3150,22990,0,2,2,0.187481692,2,-1.222253018,-0.238386647,4.084899554,218,108,110,0,1.156811594,1.092467184,1.170500555,-1.24530331,5.337389049,5.337389049,1.170500555,1.092467184,0,0,1
246,2,7,31,78,80,0,7750.691,54,1752.105,MORE,-2098,4108,2010,3,2,2,0.187481692,2,-1.222253018,0.386207188,-0.214496452,158,78,80,0,-0.039890055,-0.07803337,0,-0.404197885,-0.251119452,0.251119452,0,-0.07803337,1,0,0
247,2,8,58,110,92,0,9776.843,44,1876.795,MORE,40,4390,4430,1,2,-18,-1.687335229,18,1.571468165,-0.238386647,0.009404238,202,110,92,1,0.837691154,1.170500555,0.468200222,-0.964934835,0.293516849,0.293516849,0.468200222,1.170500555,0,0,1
248,2,9,12,50,48,1,7758.235,54,1338.013,MORE,1078,2096,3174,1,2,-2,-0.187481692,2,-1.222253018,0.386207188,-0.213662799,98,50,48,1,-1.236591704,-1.170500555,-1.248533925,-0.964934835,0.557938028,0.557938028,-1.248533925,-1.170500555,1,0,1
249,2,10,54,110,101,0,44526.337,34,1508.46,MORE,-25146,28094,2948,0,1,-9,-0.843667615,9,0,-0.862980481,3.849410165,211,110,101,1,1.017196402,1.170500555,0.819350388,-1.24530331,-6.122390485,6.122390485,0.819350388,1.170500555,0,0,0
250,2,11,14,46,50,1,10806.455,44,1927.361,MORE,-1044,4480,3436,1,2,4,0.374963384,4,-0.87303787,-0.238386647,0.1231819,96,46,50,0,-1.276481759,-1.326567295,-1.170500555,-0.964934835,0.017377583,0.017377583,-1.170500555,-1.326567295,0,0,0
251,2,12,22,80,83,1,5936.281,44,1562.155,MORE,-1008,2684,1676,1,2,3,0.281222538,3,-1.047645444,-0.238386647,-0.414998513,163,80,83,0,0.059835082,0,0.117050055,-0.964934835,0.02654826,0.02654826,0.117050055,0,0,0,0
252,2,13,6,50,56,0,22118.048,34,1101.606,MORE,9542,2232,11774,1,2,6,0.562445076,6,-0.523822722,-0.862980481,1.373173746,106,50,56,0,-1.077031484,-1.170500555,-0.936400444,-0.964934835,2.714066023,2.714066023,-0.936400444,-1.170500555,0,0,1
253,2,14,13,50,47,0,7867.572,44,3369.01,MORE,-1188,4166,2978,3,2,-3,-0.281222538,3,-1.047645444,-0.238386647,-0.201580473,97,50,47,1,-1.256536731,-1.170500555,-1.28755061,-0.404197885,-0.019305124,0.019305124,-1.28755061,-1.170500555,0,0,0
254,2,15,46,110,124,1,24336.379,54,1630.879,MORE,-8906,12596,3690,0,2,14,1.312371845,14,0.87303787,0.386207188,1.618311249,234,110,124,0,1.475932034,1.170500555,1.716734147,-1.24530331,-1.985396317,1.985396317,1.716734147,1.170500555,1,0,0
255,2,16,27,91,80,0,12568.18,64,2302.546,MORE,-5716,7476,1760,2,1,-11,-1.031149307,11,0.349215148,1.010801022,0.317861985,171,91,80,1,0.219395302,0.429183537,0,-0.68456636,-1.172772463,1.172772463,0,0.429183537,1,0,0
256,2,17,40,64,80,1,7216.421,54,2637.44,MORE,1098,2618,3716,1,2,16,1.499853537,16,1.222253018,0.386207188,-0.27353616,144,64,80,0,-0.31912044,-0.624266962,0,-0.964934835,0.563032849,0.563032849,0,-0.624266962,1,0,1
257,2,18,22,83,80,0,24450.946,14,2532.688,MORE,7056,3328,10384,0,1,-3,-0.281222538,3,-1.047645444,-2.11216815,1.630971519,163,83,80,1,0.059835082,0.117050055,0,-1.24530331,2.080779847,2.080779847,0,0.117050055,0,0,1
258,2,19,54,101,110,1,20652.52,64,1312.765,MORE,-9126,12034,2908,0,2,9,0.843667615,9,0,1.010801022,1.211225023,211,101,110,0,1.017196402,0.819350388,1.170500555,-1.24530331,-2.041439342,2.041439342,1.170500555,0.819350388,1,0,0
259,2,20,6,56,50,0,9962.632,54,2276.246,MORE,-1074,3966,2892,0,2,-6,-0.562445076,6,-0.523822722,0.386207188,0.029934922,106,56,50,1,-1.077031484,-0.936400444,-1.170500555,-1.24530331,0.009735353,0.009735353,-1.170500555,-0.936400444,1,0,0
260,2,21,18,50,42,0,15264.738,54,1635.842,MORE,-880,4796,3916,0,2,-8,-0.749926769,8,-0.174607574,0.386207188,0.615846143,92,50,42,1,-1.356261869,-1.170500555,-1.482634036,-1.24530331,0.059155111,0.059155111,-1.482634036,-1.170500555,1,0,0
261,2,22,43,110,117,1,14577.04,44,2014.369,MORE,-3946,6904,2958,0,2,7,0.656185922,7,-0.349215148,-0.238386647,0.539851816,227,110,117,0,1.336316841,1.170500555,1.443617351,-1.24530331,-0.721880857,0.721880857,1.443617351,1.170500555,0,0,0
262,2,23,32,77,80,0,10502.538,44,1051.856,MORE,-2756,4920,2164,1,2,3,0.281222538,3,-1.047645444,-0.238386647,0.089597438,157,77,80,0,-0.059835082,-0.117050055,0,-0.964934835,-0.418739043,0.418739043,0,-0.117050055,1,0,0
263,2,24,27,80,91,1,8938.346,44,1513.951,MORE,-1476,4144,2668,0,2,11,1.031149307,11,0.349215148,-0.238386647,-0.083254189,171,80,91,0,0.219395302,0,0.429183537,-1.24530331,-0.092670537,0.092670537,0.429183537,0,0,0,0
264,2,25,16,44,50,1,8371.705,34,1023.203,MORE,-438,3020,2582,1,2,6,0.562445076,6,-0.523822722,-0.862980481,-0.145871066,94,44,50,0,-1.316371814,-1.404600665,-1.170500555,-0.964934835,0.171750641,0.171750641,-1.170500555,-1.404600665,0,0,1
265,2,26,7,50,57,0,8634.889,54,2300.298,MORE,1150,2756,3906,1,2,7,0.656185922,7,-0.349215148,0.386207188,-0.116787819,107,50,57,0,-1.057086457,-1.170500555,-0.897383758,-0.964934835,0.576279382,0.576279382,-0.897383758,-1.170500555,1,0,1
266,2,27,14,50,46,0,9256.349,54,2087.074,MORE,-3174,5374,2200,1,2,-4,-0.374963384,4,-0.87303787,0.386207188,-0.048113147,96,50,46,1,-1.276481759,-1.170500555,-1.326567295,-0.964934835,-0.52522079,0.52522079,-1.326567295,-1.170500555,1,0,0
267,2,28,51,110,108,0,98982.33,54,1930.567,MORE,-38214,41894,3680,2,1,-2,-0.187481692,2,-1.222253018,0.386207188,9.867090187,218,110,108,1,1.156811594,1.170500555,1.092467184,-0.68456636,-9.451346137,9.451346137,1.092467184,1.170500555,1,0,0
268,2,29,50,133,110,0,71123.695,44,3266.077,MORE,-23686,30474,6788,0,2,-23,-2.15603946,23,2.444506035,-0.238386647,6.788561231,243,133,110,1,1.655437281,2.067884313,1.170500555,-1.24530331,-5.750468596,5.750468596,1.170500555,2.067884313,0,0,0
269,2,30,49,131,110,1,14323.977,64,1098.639,MORE,-2602,5912,3310,7,2,-21,-1.968557767,21,2.095290887,1.010801022,0.511886994,241,131,110,1,1.615547226,1.989850943,1.170500555,0.717276015,-0.379508926,0.379508926,1.170500555,1.989850943,1,1,0
270,2,31,47,126,110,1,11246.8,54,1615.594,MORE,-4838,7190,2352,2,2,-16,-1.499853537,16,1.222253018,0.386207188,0.17184239,236,126,110,1,1.515822089,1.794767517,1.170500555,-0.68456636,-0.949109847,0.949109847,1.170500555,1.794767517,1,0,0
271,2,32,50,110,133,1,5729.582,64,903.808,MORE,-698,2656,1958,2,2,23,2.15603946,23,2.444506035,1.010801022,-0.437839863,243,110,133,0,1.655437281,1.170500555,2.067884313,-0.68456636,0.105517976,0.105517976,2.067884313,1.170500555,1,0,0
272,2,33,47,110,126,1,15507.063,54,2221.023,MORE,2616,4156,6772,4,2,16,1.499853537,16,1.222253018,0.386207188,0.642624358,236,110,126,0,1.515822089,1.170500555,1.794767517,-0.12382941,0.949729717,0.949729717,1.794767517,1.170500555,1,1,1
273,2,34,12,48,50,0,9584.002,54,1453.896,MORE,-2686,4780,2094,2,2,2,0.187481692,2,-1.222253018,0.386207188,-0.011905729,98,48,50,0,-1.236591704,-1.248533925,-1.170500555,-0.68456636,-0.400907172,0.400907172,-1.170500555,-1.248533925,1,0,0
274,2,35,32,80,77,1,15060.043,44,1704.187,MORE,-442,5714,5272,5,2,-3,-0.281222538,3,-1.047645444,-0.238386647,0.593226245,157,80,77,1,-0.059835082,0,-0.117050055,0.156539065,0.170731677,0.170731677,-0.117050055,0,0,1,1
275,2,36,43,117,110,1,13755.941,54,1722.052,MORE,-430,5400,4970,4,2,-7,-0.656185922,7,-0.349215148,0.386207188,0.449115962,227,117,110,1,1.336316841,1.443617351,1.170500555,-0.12382941,0.17378857,0.17378857,1.170500555,1.443617351,1,1,1
276,2,37,40,80,64,0,4962.179,74,1493.033,MORE,-338,2306,1968,2,2,-16,-1.499853537,16,1.222253018,1.635394856,-0.522642021,144,80,64,1,-0.31912044,0,-0.624266962,-0.68456636,0.197224744,0.197224744,-0.624266962,0,1,0,1
277,2,38,31,80,78,1,7058.905,44,1628.685,MORE,-1242,3130,1888,2,2,-2,-0.187481692,2,-1.222253018,-0.238386647,-0.290942524,158,80,78,1,-0.039890055,0,-0.07803337,-0.68456636,-0.033061139,0.033061139,-0.07803337,0,0,0,0
278,2,39,46,124,110,1,6745.102,54,2401.298,MORE,648,2616,3264,2,2,-14,-1.312371845,14,0.87303787,0.386207188,-0.325619443,234,124,110,1,1.475932034,1.716734147,1.170500555,-0.68456636,0.448399389,0.448399389,1.170500555,1.716734147,1,0,1
279,2,40,58,92,110,1,5223.511,74,2397.822,MORE,-12,3050,3038,2,1,18,1.687335229,18,1.571468165,1.635394856,-0.49376343,202,92,110,0,0.837691154,0.468200222,1.170500555,-0.68456636,0.280270316,0.280270316,1.170500555,0.468200222,1,0,1
280,2,41,49,110,131,0,4393.264,54,1958.711,LESS,-918,2668,1750,4,1,21,1.968557767,21,2.095290887,0.386207188,-0.585510187,241,110,131,1,1.615547226,1.170500555,1.989850943,-0.12382941,0.049474952,0.049474952,1.989850943,1.170500555,1,0,0
281,2,42,13,47,50,1,9018.968,44,2451.178,LESS,1000,3406,4406,4,2,3,0.281222538,3,-1.047645444,-0.238386647,-0.074345024,97,47,50,1,-1.256536731,-1.28755061,-1.170500555,-0.12382941,0.538068229,0.538068229,-1.170500555,-1.28755061,0,1,1
282,2,43,16,50,44,1,2271.286,64,1742.966,LESS,-210,1354,1144,1,2,-6,-0.562445076,6,-0.523822722,1.010801022,-0.820000166,94,50,44,0,-1.316371814,-1.170500555,-1.404600665,-0.964934835,0.229831594,0.229831594,-1.404600665,-1.170500555,1,0,1
283,2,44,7,57,50,0,13824.456,34,2131.072,LESS,1356,5574,6930,11,2,-7,-0.656185922,7,-0.349215148,-0.862980481,0.456687238,107,57,50,0,-1.057086457,-0.897383758,-1.170500555,1.838749915,0.628756032,0.628756032,-1.170500555,-0.897383758,0,1,1
284,2,45,18,42,50,0,2308.854,74,932.459,LESS,-698,1702,1004,2,2,8,0.749926769,8,-0.174607574,1.635394856,-0.8158487,92,42,50,1,-1.356261869,-1.482634036,-1.170500555,-0.68456636,0.105517976,0.105517976,-1.170500555,-1.482634036,1,0,1
285,2,46,51,108,110,0,6735.222,24,2393.238,LESS,-1646,3936,2290,2,1,2,0.187481692,2,-1.222253018,-1.487574315,-0.326711236,218,108,110,1,1.156811594,1.092467184,1.170500555,-0.68456636,-0.135976511,0.135976511,1.170500555,1.092467184,0,0,0
286,2,47,31,78,80,0,4220.918,54,1672.646,LESS,-1260,2626,1366,4,1,2,0.187481692,2,-1.222253018,0.386207188,-0.604555347,158,78,80,1,-0.039890055,-0.07803337,0,-0.12382941,-0.037646477,0.037646477,0,-0.07803337,1,1,0
287,2,48,58,110,92,1,4542.711,64,1656.103,LESS,884,1768,2652,2,2,-18,-1.687335229,18,1.571468165,1.010801022,-0.56899549,202,110,92,0,0.837691154,1.170500555,0.468200222,-0.68456636,0.50851827,0.50851827,0.468200222,1.170500555,1,0,1
288,2,49,12,50,48,1,10213.207,64,2050.486,LESS,-1040,5650,4610,5,2,-2,-0.187481692,2,-1.222253018,1.010801022,0.057624806,98,50,48,0,-1.236591704,-1.170500555,-1.248533925,0.156539065,0.018396547,0.018396547,-1.248533925,-1.170500555,1,1,0
289,2,50,54,110,101,0,12842.266,34,2003.719,LESS,-96,5570,5474,6,2,-9,-0.843667615,9,0,-0.862980481,0.348149962,211,110,101,0,1.017196402,1.170500555,0.819350388,0.43690754,0.25887207,0.25887207,0.819350388,1.170500555,0,1,1
290,2,51,14,46,50,0,5697.236,64,2140.884,LESS,332,3004,3336,2,2,4,0.374963384,4,-0.87303787,1.010801022,-0.44141427,96,46,50,1,-1.276481759,-1.326567295,-1.170500555,-0.68456636,0.367901227,0.367901227,-1.170500555,-1.326567295,1,0,1
291,2,52,22,80,83,1,9507.452,44,2118.243,LESS,-336,4594,4258,5,2,3,0.281222538,3,-1.047645444,-0.238386647,-0.020364916,163,80,83,1,0.059835082,0,0.117050055,0.156539065,0.197734226,0.197734226,0.117050055,0,0,1,1
292,2,53,6,50,56,0,2202.626,74,1487.098,LESS,-70,1430,1360,3,2,6,0.562445076,6,-0.523822722,1.635394856,-0.827587465,106,50,56,1,-1.077031484,-1.170500555,-0.936400444,-0.404197885,0.265495337,0.265495337,-0.936400444,-1.170500555,1,0,1
293,2,54,13,50,47,0,10523.383,34,1958.964,LESS,-1666,4070,2404,2,1,-3,-0.281222538,3,-1.047645444,-0.862980481,0.091900922,97,50,47,0,-1.256536731,-1.170500555,-1.28755061,-0.68456636,-0.141071331,0.141071331,-1.28755061,-1.170500555,0,0,0
294,2,55,46,110,124,0,5659.319,54,1844.987,LESS,-1344,3058,1714,4,1,14,1.312371845,14,0.87303787,0.386207188,-0.445604303,234,110,124,1,1.475932034,1.170500555,1.716734147,-0.12382941,-0.059044723,0.059044723,1.716734147,1.170500555,1,1,0
295,2,56,27,91,80,0,11711.122,34,1805.081,LESS,1348,4050,5398,6,2,-11,-1.031149307,11,0.349215148,-0.862980481,0.223152468,171,91,80,0,0.219395302,0.429183537,0,0.43690754,0.626718104,0.626718104,0,0.429183537,0,1,1
296,2,57,40,64,80,0,4957.49,74,1107.567,LESS,-1200,2784,1584,4,2,16,1.499853537,16,1.222253018,1.635394856,-0.523160181,144,64,80,1,-0.31912044,-0.624266962,0,-0.12382941,-0.022362016,0.022362016,0,-0.624266962,1,1,0
297,2,58,22,83,80,1,4295.431,54,1443.805,LESS,214,1914,2128,3,2,-3,-0.281222538,3,-1.047645444,0.386207188,-0.59632126,163,83,80,0,0.059835082,0.117050055,0,-0.404197885,0.337841787,0.337841787,0,0.117050055,1,0,1
298,2,59,54,101,110,0,3120.003,64,1850.169,LESS,-464,2398,1934,3,2,9,0.843667615,9,0,1.010801022,-0.726212374,211,101,110,1,1.017196402,0.819350388,1.170500555,-0.404197885,0.165127375,0.165127375,1.170500555,0.819350388,1,0,1
299,2,60,6,56,50,1,6435.686,54,2238.014,LESS,628,2624,3252,4,2,-6,-0.562445076,6,-0.523822722,0.386207188,-0.359811575,106,56,50,0,-1.077031484,-0.936400444,-1.170500555,-0.12382941,0.443304569,0.443304569,-1.170500555,-0.936400444,1,1,1
300,2,61,18,50,42,1,4288.92,54,3228.427,LESS,12,1926,1938,2,1,-8,-0.749926769,8,-0.174607574,0.386207188,-0.59704076,92,50,42,0,-1.356261869,-1.170500555,-1.482634036,-0.68456636,0.286384101,0.286384101,-1.482634036,-1.170500555,1,0,1
301,2,62,43,110,117,0,9699.076,74,1452.641,LESS,-3352,6362,3010,5,2,7,0.656185922,7,-0.349215148,1.635394856,0.000810567,227,110,117,1,1.336316841,1.170500555,1.443617351,0.156539065,-0.570564691,0.570564691,1.443617351,1.170500555,1,1,0
302,2,63,32,77,80,0,12993.588,44,1630.684,LESS,-1182,5796,4614,7,1,3,0.281222538,3,-1.047645444,-0.238386647,0.364871856,157,77,80,1,-0.059835082,-0.117050055,0,0.717276015,-0.017776678,0.017776678,0,-0.117050055,0,1,0
303,2,64,27,80,91,0,6368.911,74,1303.266,LESS,-272,3348,3076,4,2,11,1.031149307,11,0.349215148,1.635394856,-0.367190571,171,80,91,1,0.219395302,0,0.429183537,-0.12382941,0.214037651,0.214037651,0.429183537,0,1,0,1
304,2,65,16,44,50,0,5931.459,74,1220.198,LESS,-362,3042,2680,6,2,6,0.562445076,6,-0.523822722,1.635394856,-0.415531369,94,44,50,1,-1.316371814,-1.404600665,-1.170500555,0.43690754,0.191110959,0.191110959,-1.170500555,-1.404600665,1,1,1
305,2,66,7,50,57,0,13766.499,34,1932.302,LESS,-310,5368,5058,12,2,7,0.656185922,7,-0.349215148,-0.862980481,0.450282678,107,50,57,1,-1.057086457,-1.170500555,-0.897383758,2.11911839,0.204357492,0.204357492,-0.897383758,-1.170500555,0,1,1
306,2,67,14,50,46,1,3602.769,64,1430.108,LESS,1312,1330,2642,3,2,-4,-0.374963384,4,-0.87303787,1.010801022,-0.672864135,96,50,46,0,-1.276481759,-1.170500555,-1.326567295,-0.404197885,0.617547427,0.617547427,-1.326567295,-1.170500555,1,0,1
307,2,68,51,110,108,1,8029.58,44,1799.54,LESS,194,3022,3216,2,2,-2,-0.187481692,2,-1.222253018,-0.238386647,-0.183677718,218,110,108,0,1.156811594,1.170500555,1.092467184,-0.68456636,0.332746966,0.332746966,1.092467184,1.170500555,0,0,1
308,2,69,50,133,110,1,9357.582,44,3986.084,LESS,458,3508,3966,1,2,-23,-2.15603946,23,2.444506035,-0.238386647,-0.036926357,243,133,110,0,1.655437281,2.067884313,1.170500555,-0.964934835,0.399998596,0.399998596,1.170500555,2.067884313,0,0,1
309,2,70,49,131,110,1,14391.407,34,1880.438,LESS,924,5904,6828,6,2,-21,-1.968557767,21,2.095290887,-0.862980481,0.519338372,241,131,110,0,1.615547226,1.989850943,1.170500555,0.43690754,0.518707911,0.518707911,1.170500555,1.989850943,0,1,1
310,2,71,47,126,110,1,13627.4,24,1952.1,LESS,2036,4230,6266,4,2,-16,-1.499853537,16,1.222253018,-1.487574315,0.43491149,236,126,110,0,1.515822089,1.794767517,1.170500555,-0.12382941,0.801979925,0.801979925,1.170500555,1.794767517,0,0,1
311,2,72,50,110,133,0,4957.208,90,1779.016,LESS,-1454,3530,2076,3,2,23,2.15603946,23,2.444506035,2.634744991,-0.523191343,243,110,133,1,1.655437281,1.170500555,2.067884313,-0.404197885,-0.087066235,0.087066235,2.067884313,1.170500555,1,0,0
312,2,73,47,110,126,0,5640.168,74,1236.212,LESS,-1488,3630,2142,5,2,16,1.499853537,16,1.222253018,1.635394856,-0.447720591,236,110,126,1,1.515822089,1.170500555,1.794767517,0.156539065,-0.09572743,0.09572743,1.794767517,1.170500555,1,1,0
313,2,74,12,48,50,1,8963.665,64,1536.048,LESS,-2592,5632,3040,3,2,2,0.187481692,2,-1.222253018,1.010801022,-0.080456303,98,48,50,1,-1.236591704,-1.248533925,-1.170500555,-0.404197885,-0.376961516,0.376961516,-1.170500555,-1.248533925,1,0,0
314,2,75,32,80,77,0,12768.284,34,1704.979,LESS,-1760,6420,4660,4,2,-3,-0.281222538,3,-1.047645444,-0.862980481,0.339974553,157,80,77,0,-0.059835082,0,-0.117050055,-0.12382941,-0.165016987,0.165016987,-0.117050055,0,0,1,0
315,2,76,43,117,110,1,13402.299,34,1770.742,LESS,-2652,7602,4950,8,2,-7,-0.656185922,7,-0.349215148,-0.862980481,0.410036619,227,117,110,0,1.336316841,1.443617351,1.170500555,0.99764449,-0.392245977,0.392245977,1.170500555,1.443617351,0,1,0
316,2,77,40,80,64,0,8565.537,54,1287.286,LESS,-284,3972,3688,4,2,-16,-1.499853537,16,1.222253018,0.386207188,-0.124451588,144,80,64,0,-0.31912044,0,-0.624266962,-0.12382941,0.210980759,0.210980759,-0.624266962,0,1,1,1
317,2,78,31,80,78,1,8977.981,54,1892.798,LESS,1130,3416,4546,5,2,-2,-0.187481692,2,-1.222253018,0.386207188,-0.078874308,158,80,78,0,-0.039890055,0,-0.07803337,0.156539065,0.571184561,0.571184561,-0.07803337,0,1,1,1
318,2,79,46,124,110,1,19471.289,24,2425.003,LESS,950,6942,7892,11,2,-14,-1.312371845,14,0.87303787,-1.487574315,1.080692646,234,124,110,0,1.475932034,1.716734147,1.170500555,1.838749915,0.525331178,0.525331178,1.170500555,1.716734147,0,1,1
319,2,80,58,92,110,0,3362.804,64,1473.768,LESS,-692,1688,996,2,2,18,1.687335229,18,1.571468165,1.010801022,-0.699381558,202,92,110,1,0.837691154,0.468200222,1.170500555,-0.68456636,0.107046422,0.107046422,1.170500555,0.468200222,1,0,1
320,2,81,48,128,110,0,6980.156,74,1286.724,MORE,-548,2164,1616,5,2,-18,-1.687335229,18,1.571468165,1.635394856,-0.299644712,238,128,110,1,1.555712144,1.872800887,1.170500555,0.156539065,0.143729129,0.143729129,1.170500555,1.872800887,1,1,0
321,2,82,8,50,58,1,7323.464,54,1152.661,MORE,180,2692,2872,8,2,8,0.749926769,8,-0.174607574,0.386207188,-0.261707332,108,50,58,0,-1.037141429,-1.170500555,-0.858367073,0.99764449,0.329180592,0.329180592,-0.858367073,-1.170500555,1,1,1
322,2,83,4,54,50,1,12685.652,34,1611.108,MORE,-48,5540,5492,11,2,-4,-0.374963384,4,-0.87303787,-0.862980481,0.330843273,104,54,50,1,-1.116921539,-1.014433814,-1.170500555,1.838749915,0.271099639,0.271099639,-1.170500555,-1.014433814,0,1,1
323,2,84,37,80,69,0,6234.269,64,1158.75,MORE,-880,3384,2504,4,2,-11,-1.031149307,11,0.349215148,1.010801022,-0.382069236,149,80,69,1,-0.219395302,0,-0.429183537,-0.12382941,0.059155111,0.059155111,-0.429183537,0,1,1,0
324,2,85,52,105,110,1,7470.982,64,1301.8,MORE,122,3444,3566,3,2,5,0.46870423,5,-0.698430296,1.010801022,-0.2454058,215,105,110,0,1.096976512,0.975417129,1.170500555,-0.404197885,0.314405613,0.314405613,1.170500555,0.975417129,1,1,1
325,2,86,5,55,50,0,19803.463,14,1765.461,MORE,-4124,10918,6794,18,1,-5,-0.46870423,5,-0.698430296,-2.11216815,1.117399659,105,55,50,1,-1.096976512,-0.975417129,-1.170500555,3.80132924,-0.767224759,0.767224759,-1.170500555,-0.975417129,0,1,0
326,2,87,30,96,80,0,4605.276,54,1815.553,MORE,916,1932,2848,3,2,-16,-1.499853537,16,1.222253018,0.386207188,-0.562081721,176,96,80,1,0.31912044,0.624266962,0,-0.404197885,0.516669983,0.516669983,0,0.624266962,1,1,1
327,2,88,33,80,75,1,10068.237,34,1499.13,MORE,-1038,4528,3490,3,1,-5,-0.46870423,5,-0.698430296,-0.862980481,0.041604842,155,80,75,1,-0.099725137,0,-0.195083426,-0.404197885,0.018906029,0.018906029,-0.195083426,0,0,1,0
328,2,89,48,110,128,1,4717.351,64,2130.662,MORE,-882,2750,1868,3,2,18,1.687335229,18,1.571468165,1.010801022,-0.549696831,238,110,128,0,1.555712144,1.170500555,1.872800887,-0.404197885,0.058645629,0.058645629,1.872800887,1.170500555,1,1,0
329,2,90,9,59,50,0,10498.412,34,2495.783,MORE,-2006,5568,3562,8,1,-9,-0.843667615,9,0,-0.862980481,0.089141492,109,59,50,1,-1.017196402,-0.819350388,-1.170500555,0.99764449,-0.227683278,0.227683278,-1.170500555,-0.819350388,0,1,0
330,2,91,44,110,119,1,4786.207,54,1197.771,MORE,328,2112,2440,1,2,9,0.843667615,9,0,0.386207188,-0.542087873,229,110,119,0,1.376206896,1.170500555,1.521650721,-0.964934835,0.366882263,0.366882263,1.521650721,1.170500555,1,0,1
331,2,92,2,52,50,0,17514.257,44,1972.418,MORE,-7076,11884,4808,9,2,-2,-0.187481692,2,-1.222253018,-0.238386647,0.864430087,102,52,50,1,-1.156811594,-1.092467184,-1.170500555,1.278012965,-1.519220251,1.519220251,-1.170500555,-1.092467184,0,1,0
332,2,93,8,58,50,0,7383.357,54,2735.914,MORE,-486,3646,3160,4,1,-8,-0.749926769,8,-0.174607574,0.386207188,-0.255088834,108,58,50,1,-1.037141429,-0.858367073,-1.170500555,-0.12382941,0.159523073,0.159523073,-1.170500555,-0.858367073,1,1,1
333,2,94,44,119,110,0,19661.432,34,1301.864,MORE,-6016,11564,5548,7,1,-9,-0.843667615,9,0,-0.862980481,1.10170447,229,119,110,1,1.376206896,1.521650721,1.170500555,0.717276015,-1.249194769,1.249194769,1.170500555,1.521650721,0,1,0
334,2,95,34,74,80,1,11765.399,64,1349.447,MORE,-788,6156,5368,0,2,6,0.562445076,6,-0.523822722,1.010801022,0.229150368,154,74,80,0,-0.119670165,-0.234100111,0,-1.24530331,0.082591284,0.082591284,0,-0.234100111,1,0,0
335,2,96,24,86,80,0,11965.88,44,1244.369,MORE,-1194,5802,4608,5,1,-6,-0.562445076,6,-0.523822722,-0.238386647,0.251304597,166,86,80,1,0.119670165,0.234100111,0,0.156539065,-0.02083357,0.02083357,0,0.234100111,0,1,0
336,2,97,39,66,80,1,3989.236,74,933.976,MORE,-222,2226,2004,3,2,14,1.312371845,14,0.87303787,1.635394856,-0.630157454,146,66,80,0,-0.279230385,-0.546233592,0,-0.404197885,0.226774702,0.226774702,0,-0.546233592,1,1,1
337,2,98,9,50,59,0,9313.449,44,1556.543,MORE,-894,4894,4000,3,2,9,0.843667615,9,0,-0.238386647,-0.04180329,109,50,59,0,-1.017196402,-1.170500555,-0.819350388,-0.404197885,0.055588736,0.055588736,-0.819350388,-1.170500555,0,1,0
338,2,99,57,94,110,1,10580.194,64,1378.042,MORE,-334,4974,4640,5,2,16,1.499853537,16,1.222253018,1.010801022,0.098178843,204,94,110,0,0.877581209,0.546233592,1.170500555,0.156539065,0.198243708,0.198243708,1.170500555,0.546233592,1,1,1
339,2,100,60,110,87,0,6636.98,54,1463.95,MORE,-1810,3586,1776,2,1,-23,-2.15603946,23,2.444506035,0.386207188,-0.337567506,197,110,87,1,0.737966017,1.170500555,0.273116796,-0.68456636,-0.177754038,0.177754038,0.273116796,1.170500555,1,0,0
340,2,101,33,75,80,1,6202.516,54,1406.762,MORE,-1494,3456,1962,3,2,5,0.46870423,5,-0.698430296,0.386207188,-0.385578114,155,75,80,0,-0.099725137,-0.195083426,0,-0.404197885,-0.097255876,0.097255876,0,-0.195083426,1,1,0
341,2,102,15,50,45,1,28899.841,24,1851.009,MORE,-366,12188,11822,20,2,-5,-0.46870423,5,-0.698430296,-1.487574315,2.122598337,95,50,45,1,-1.296426786,-1.170500555,-1.36558398,4.36206619,0.190091995,0.190091995,-1.36558398,-1.170500555,0,1,1
342,2,103,59,89,110,1,9338.527,54,999.693,MORE,-174,3918,3744,3,2,21,1.968557767,21,2.095290887,0.386207188,-0.039032036,199,89,110,0,0.777856072,0.351150166,1.170500555,-0.404197885,0.239002271,0.239002271,1.170500555,0.351150166,1,1,1
343,2,104,29,80,94,1,4110.953,74,1388.961,MORE,396,2040,2436,3,2,14,1.312371845,14,0.87303787,1.635394856,-0.616707071,174,80,94,0,0.279230385,0,0.546233592,-0.404197885,0.384204652,0.384204652,0.546233592,0,1,0,1
344,2,105,55,110,98,0,5941.794,54,1108.923,MORE,-752,3174,2422,5,2,-12,-1.124890153,12,0.523822722,0.386207188,-0.414389296,208,110,98,1,0.957361319,1.170500555,0.702300333,0.156539065,0.091761961,0.091761961,0.702300333,1.170500555,1,1,0
345,2,106,29,94,80,0,2614.124,64,1645.33,MORE,110,1714,1824,3,2,-14,-1.312371845,14,0.87303787,1.010801022,-0.782114723,174,94,80,1,0.279230385,0.546233592,0,-0.404197885,0.311348721,0.311348721,0,0.546233592,1,0,1
346,2,107,57,110,94,0,5470.66,74,1045.761,MORE,-306,3116,2810,5,2,-16,-1.499853537,16,1.222253018,1.635394856,-0.466452137,204,110,94,1,0.877581209,1.170500555,0.546233592,0.156539065,0.205376456,0.205376456,0.546233592,1.170500555,1,1,1
347,2,108,39,80,66,0,11858.61,54,1564.235,MORE,-92,4986,4894,4,2,-14,-1.312371845,14,0.87303787,0.386207188,0.239450685,146,80,66,1,-0.279230385,0,-0.546233592,-0.12382941,0.259891034,0.259891034,-0.546233592,0,1,1,1
348,2,109,4,50,54,1,4419.104,54,1371.331,MORE,56,2164,2220,3,2,4,0.374963384,4,-0.87303787,0.386207188,-0.582654728,104,50,54,0,-1.116921539,-1.170500555,-1.014433814,-0.404197885,0.297592705,0.297592705,-1.014433814,-1.170500555,1,0,1
349,2,110,55,98,110,1,8740.806,24,2327.713,MORE,-44,3874,3830,9,2,12,1.124890153,12,0.523822722,-1.487574315,-0.105083421,208,98,110,0,0.957361319,0.702300333,1.170500555,1.278012965,0.272118603,0.272118603,1.170500555,0.702300333,0,1,1
350,2,111,2,50,52,0,11192.925,34,1615.539,MORE,-3272,6726,3454,2,1,2,0.187481692,2,-1.222253018,-0.862980481,0.165888913,102,50,52,0,-1.156811594,-1.170500555,-1.092467184,-0.68456636,-0.55018541,0.55018541,-1.092467184,-1.170500555,0,0,0
351,2,112,59,110,89,0,11204.062,34,2638.626,MORE,-3066,6246,3180,4,1,-21,-1.968557767,21,2.095290887,-0.862980481,0.167119612,199,110,89,1,0.777856072,1.170500555,0.351150166,-0.12382941,-0.49770876,0.49770876,0.351150166,1.170500555,0,1,0
352,2,113,60,87,110,1,7304.684,54,1306.144,MORE,-356,3222,2866,3,2,23,2.15603946,23,2.444506035,0.386207188,-0.263782623,197,87,110,0,0.737966017,0.273116796,1.170500555,-0.404197885,0.192639405,0.192639405,1.170500555,0.273116796,1,0,1
353,2,114,52,110,105,1,8140.553,34,1603.541,MORE,34,3522,3556,3,2,-5,-0.46870423,5,-0.698430296,-0.862980481,-0.171414605,215,110,105,1,1.096976512,1.170500555,0.975417129,-0.404197885,0.291988403,0.291988403,0.975417129,1.170500555,0,0,1
354,2,115,30,80,96,1,10329.606,44,1550.286,MORE,-1212,5220,4008,4,2,16,1.499853537,16,1.222253018,-0.238386647,0.070487522,176,80,96,0,0.31912044,0,0.624266962,-0.12382941,-0.025418908,0.025418908,0.624266962,0,0,1,0
355,2,116,24,80,86,1,6838.95,34,2177.724,MORE,490,2908,3398,3,2,6,0.562445076,6,-0.523822722,-0.862980481,-0.315248735,166,80,86,0,0.119670165,0,0.234100111,-0.404197885,0.408150308,0.408150308,0.234100111,0,0,0,1
356,2,117,5,50,55,1,7156.253,64,3211.713,MORE,758,3310,4068,3,2,5,0.46870423,5,-0.698430296,1.010801022,-0.280185047,105,50,55,0,-1.096976512,-1.170500555,-0.975417129,-0.404197885,0.476420902,0.476420902,-0.975417129,-1.170500555,1,0,1
357,2,118,34,80,74,0,23243.997,14,1990.092,MORE,-3182,11950,8768,17,1,-6,-0.562445076,6,-0.523822722,-2.11216815,1.497597165,154,80,74,1,-0.119670165,0,-0.234100111,3.520960765,-0.527258718,0.527258718,-0.234100111,0,0,1,0
358,2,119,15,45,50,1,8328.395,54,1783.434,MORE,-548,4172,3624,5,2,5,0.46870423,5,-0.698430296,0.386207188,-0.150657054,95,45,50,0,-1.296426786,-1.36558398,-1.170500555,0.156539065,0.143729129,0.143729129,-1.170500555,-1.36558398,1,1,1
359,2,120,37,69,80,1,2418.19,64,1362.421,MORE,-2,1124,1122,1,2,11,1.031149307,11,0.349215148,1.010801022,-0.803766484,149,69,80,0,-0.219395302,-0.429183537,0,-0.964934835,0.282817726,0.282817726,0,-0.429183537,1,0,1
360,2,121,48,128,110,1,10371.722,44,2409.062,LESS,882,4660,5542,5,2,-18,-1.687335229,18,1.571468165,-0.238386647,0.075141566,238,128,110,0,1.555712144,1.872800887,1.170500555,0.156539065,0.508008788,0.508008788,1.170500555,1.872800887,0,1,1
361,2,122,8,50,58,0,6100.871,74,1496.749,LESS,-578,3590,3012,5,2,8,0.749926769,8,-0.174607574,1.635394856,-0.396810433,108,50,58,1,-1.037141429,-1.170500555,-0.858367073,0.156539065,0.136086899,0.136086899,-0.858367073,-1.170500555,1,1,1
362,2,123,4,54,50,1,10341.341,44,1249.981,LESS,-1096,4662,3566,4,2,-4,-0.374963384,4,-0.87303787,-0.238386647,0.071784302,104,54,50,0,-1.116921539,-1.014433814,-1.170500555,-0.12382941,0.00413105,0.00413105,-1.170500555,-1.014433814,0,1,0
363,2,124,37,80,69,1,6921.445,74,1239.681,LESS,2918,2068,4986,2,2,-11,-1.031149307,11,0.349215148,1.635394856,-0.306132594,149,80,69,0,-0.219395302,0,-0.429183537,-0.68456636,1.026661505,1.026661505,-0.429183537,0,1,0,1
364,2,125,52,105,110,0,3024.208,74,1439.642,LESS,-750,2012,1262,2,2,5,0.46870423,5,-0.698430296,1.635394856,-0.736798236,215,105,110,1,1.096976512,0.975417129,1.170500555,-0.68456636,0.092271443,0.092271443,1.170500555,0.975417129,1,0,1
365,2,126,5,55,50,1,8126.898,34,1543.9,LESS,96,3714,3810,5,2,-5,-0.46870423,5,-0.698430296,-0.862980481,-0.172923556,105,55,50,0,-1.096976512,-0.975417129,-1.170500555,0.156539065,0.307782346,0.307782346,-1.170500555,-0.975417129,0,1,1
366,2,127,30,96,80,0,6204.749,64,1485.842,LESS,-1704,3484,1780,3,2,-16,-1.499853537,16,1.222253018,1.010801022,-0.385331355,176,96,80,0,0.31912044,0.624266962,0,-0.404197885,-0.15075149,0.15075149,0,0.624266962,1,0,0
367,2,128,33,80,75,0,4774.057,54,1705.605,LESS,-2044,3212,1168,2,1,-5,-0.46870423,5,-0.698430296,0.386207188,-0.543430513,155,80,75,0,-0.099725137,0,-0.195083426,-0.68456636,-0.237363437,0.237363437,-0.195083426,0,1,0,0
368,2,129,48,110,128,0,4717.593,64,1710.856,LESS,-1470,3024,1554,5,2,18,1.687335229,18,1.571468165,1.010801022,-0.549670089,238,110,128,1,1.555712144,1.170500555,1.872800887,0.156539065,-0.091142091,0.091142091,1.872800887,1.170500555,1,1,0
369,2,130,9,59,50,0,12861.619,44,1141.561,LESS,-1538,6498,4960,8,2,-9,-0.843667615,9,0,-0.238386647,0.350288572,109,59,50,0,-1.017196402,-0.819350388,-1.170500555,0.99764449,-0.108464481,0.108464481,-1.170500555,-0.819350388,0,1,0
370,2,131,44,110,119,0,8381.153,44,1091.35,LESS,-2634,5174,2540,2,1,9,0.843667615,9,0,-0.238386647,-0.144827011,229,110,119,1,1.376206896,1.170500555,1.521650721,-0.68456636,-0.387660639,0.387660639,1.521650721,1.170500555,0,0,0
371,2,132,2,52,50,1,7201.565,54,981.146,LESS,-3152,5152,2000,1,2,-2,-0.187481692,2,-1.222253018,0.386207188,-0.275177827,102,52,50,0,-1.156811594,-1.092467184,-1.170500555,-0.964934835,-0.519616487,0.519616487,-1.170500555,-1.092467184,1,0,0
372,2,133,8,58,50,1,6935.852,64,1981.256,LESS,536,2516,3052,3,2,-8,-0.749926769,8,-0.174607574,1.010801022,-0.304540543,108,58,50,0,-1.037141429,-0.858367073,-1.170500555,-0.404197885,0.419868395,0.419868395,-1.170500555,-0.858367073,1,0,1
373,2,134,44,119,110,1,8155.782,64,1353.353,LESS,1344,3230,4574,3,2,-9,-0.843667615,9,0,1.010801022,-0.169731718,229,119,110,0,1.376206896,1.521650721,1.170500555,-0.404197885,0.625699139,0.625699139,1.170500555,1.521650721,1,0,1
374,2,135,34,74,80,0,11231.186,44,1232.924,LESS,-2280,6098,3818,4,1,6,0.562445076,6,-0.523822722,-0.238386647,0.170116959,154,74,80,1,-0.119670165,-0.234100111,0,-0.12382941,-0.297482318,0.297482318,0,-0.234100111,0,1,0
375,2,136,24,86,80,1,13460.855,34,1694.064,LESS,-192,6134,5942,6,2,-6,-0.562445076,6,-0.523822722,-0.862980481,0.416507372,166,86,80,0,0.119670165,0.234100111,0,0.43690754,0.234416932,0.234416932,0,0.234100111,0,1,1
376,2,137,39,66,80,0,5129.368,74,941.8,LESS,-1288,3138,1850,2,2,14,1.312371845,14,0.87303787,1.635394856,-0.504166738,146,66,80,1,-0.279230385,-0.546233592,0,-0.68456636,-0.044779226,0.044779226,0,-0.546233592,1,0,0
377,2,138,9,50,59,0,3361.537,74,873.848,LESS,-1076,2344,1268,2,2,9,0.843667615,9,0,1.635394856,-0.699521568,109,50,59,1,-1.017196402,-1.170500555,-0.819350388,-0.68456636,0.009225871,0.009225871,-0.819350388,-1.170500555,1,0,0
378,2,139,57,94,110,0,13908.459,44,2340.302,LESS,-2680,7324,4644,10,1,16,1.499853537,16,1.222253018,-0.238386647,0.465970021,204,94,110,1,0.877581209,0.546233592,1.170500555,1.55838144,-0.399378726,0.399378726,1.170500555,0.546233592,0,1,0
379,2,140,60,110,87,1,6783.104,64,1301.281,LESS,-738,3230,2492,3,2,-23,-2.15603946,23,2.444506035,1.010801022,-0.321420018,197,110,87,0,0.737966017,1.170500555,0.273116796,-0.404197885,0.095328335,0.095328335,0.273116796,1.170500555,1,0,1
380,2,141,33,75,80,0,9203.481,24,1686.943,LESS,-3252,6470,3218,6,1,5,0.46870423,5,-0.698430296,-1.487574315,-0.053955346,155,75,80,1,-0.099725137,-0.195083426,0,0.43690754,-0.545090589,0.545090589,0,-0.195083426,0,1,0
381,2,142,15,50,45,1,5052.915,44,1003.969,LESS,264,2290,2554,3,2,-5,-0.46870423,5,-0.698430296,-0.238386647,-0.512615205,95,50,45,0,-1.296426786,-1.170500555,-1.36558398,-0.404197885,0.350578838,0.350578838,-1.36558398,-1.170500555,0,0,1
382,2,143,59,89,110,0,6342.498,64,1003.626,LESS,-3500,4610,1110,2,1,21,1.968557767,21,2.095290887,1.010801022,-0.37010935,199,89,110,1,0.777856072,0.351150166,1.170500555,-0.68456636,-0.608266362,0.608266362,1.170500555,0.351150166,1,0,0
383,2,144,29,80,94,0,3910.52,44,1509.731,LESS,-1330,2612,1282,2,1,14,1.312371845,14,0.87303787,-0.238386647,-0.638855995,174,80,94,1,0.279230385,0,0.546233592,-0.68456636,-0.055478349,0.055478349,0.546233592,0,0,0,0
384,2,145,55,110,98,1,4594.054,54,1203.888,LESS,-620,2484,1864,3,2,-12,-1.124890153,12,0.523822722,0.386207188,-0.563321813,208,110,98,0,0.957361319,1.170500555,0.702300333,-0.404197885,0.125387776,0.125387776,0.702300333,1.170500555,1,0,1
385,2,146,29,94,80,0,15601.451,24,1100.065,LESS,-2058,8070,6012,10,1,-14,-1.312371845,14,0.87303787,-1.487574315,0.65305474,174,94,80,0,0.279230385,0.546233592,0,1.55838144,-0.240929811,0.240929811,0,0.546233592,0,1,0
386,2,147,57,110,94,1,7309.275,24,1638.976,LESS,786,3044,3830,3,2,-16,-1.499853537,16,1.222253018,-1.487574315,-0.263275293,204,110,94,0,0.877581209,1.170500555,0.546233592,-0.404197885,0.48355365,0.48355365,0.546233592,1.170500555,0,0,1
387,2,148,39,80,66,1,5190.82,24,2606.4,LESS,704,2182,2886,3,1,-14,-1.312371845,14,0.87303787,-1.487574315,-0.497375961,146,80,66,0,-0.279230385,0,-0.546233592,-0.404197885,0.462664887,0.462664887,-0.546233592,0,0,0,1
388,2,149,4,50,54,0,20879.898,24,1616.398,LESS,-1756,10028,8272,21,1,4,0.374963384,4,-0.87303787,-1.487574315,1.236351514,104,50,54,1,-1.116921539,-1.170500555,-1.014433814,4.642434665,-0.163998023,0.163998023,-1.014433814,-1.170500555,0,1,0
389,2,150,55,98,110,0,4408.831,54,1312.763,LESS,-1082,2670,1588,5,2,12,1.124890153,12,0.523822722,0.386207188,-0.58378995,208,98,110,1,0.957361319,0.702300333,1.170500555,0.156539065,0.007697424,0.007697424,1.170500555,0.702300333,1,1,0
390,2,151,2,50,52,0,13117.59,34,1703.693,LESS,-2310,7062,4752,10,2,2,0.187481692,2,-1.222253018,-0.862980481,0.378574744,102,50,52,1,-1.156811594,-1.170500555,-1.092467184,1.55838144,-0.305124548,0.305124548,-1.092467184,-1.170500555,0,1,0
391,2,152,59,110,89,1,5613.966,74,1144.659,LESS,1096,2352,3448,3,2,-21,-1.968557767,21,2.095290887,1.635394856,-0.450616053,199,110,89,0,0.777856072,1.170500555,0.351150166,-0.404197885,0.562523366,0.562523366,0.351150166,1.170500555,1,0,1
392,2,153,60,87,110,0,5082.736,74,1092.619,LESS,-474,2826,2352,5,2,23,2.15603946,23,2.444506035,1.635394856,-0.509319824,197,87,110,1,0.737966017,0.273116796,1.170500555,0.156539065,0.162579965,0.162579965,1.170500555,0.273116796,1,1,1
393,2,154,52,110,105,0,8499.643,24,1508.222,LESS,-1162,4506,3344,6,1,-5,-0.46870423,5,-0.698430296,-1.487574315,-0.131733229,215,110,105,0,1.096976512,1.170500555,0.975417129,0.43690754,-0.012681857,0.012681857,0.975417129,1.170500555,0,1,0
394,2,155,30,80,96,0,7979.472,54,1411.614,LESS,-2612,5064,2452,6,2,16,1.499853537,16,1.222253018,0.386207188,-0.189214921,176,80,96,1,0.31912044,0,0.624266962,0.43690754,-0.382056336,0.382056336,0.624266962,0,1,1,0
395,2,156,24,80,86,1,15395.867,34,1630.552,LESS,848,6316,7164,6,2,6,0.562445076,6,-0.523822722,-0.862980481,0.630336602,166,80,86,1,0.119670165,0,0.234100111,0.43690754,0.499347593,0.499347593,0.234100111,0,0,1,1
396,2,157,5,50,55,0,8201.57,64,1107.142,LESS,-478,4210,3732,7,2,5,0.46870423,5,-0.698430296,1.010801022,-0.164671898,105,50,55,1,-1.096976512,-1.170500555,-0.975417129,0.717276015,0.161561001,0.161561001,-0.975417129,-1.170500555,1,1,1
397,2,158,34,80,74,1,6820.168,54,1301.198,LESS,-160,3166,3006,5,2,-6,-0.562445076,6,-0.523822722,0.386207188,-0.317324247,154,80,74,0,-0.119670165,0,-0.234100111,0.156539065,0.242568645,0.242568645,-0.234100111,0,1,1,1
398,2,159,15,45,50,0,8076.828,44,1552.155,LESS,-578,3810,3232,8,2,5,0.46870423,5,-0.698430296,-0.238386647,-0.17845656,95,45,50,1,-1.296426786,-1.36558398,-1.170500555,0.99764449,0.136086899,0.136086899,-1.170500555,-1.36558398,0,1,1
399,2,160,37,69,80,0,5123.042,64,1627.268,LESS,-730,3156,2426,5,2,11,1.031149307,11,0.349215148,1.010801022,-0.504865795,149,69,80,1,-0.219395302,-0.429183537,0,0.156539065,0.097366264,0.097366264,0,-0.429183537,1,1,1
400,2,161,3,50,53,1,7567.203,44,1533.445,MORE,-420,3358,2938,3,2,3,0.281222538,3,-1.047645444,-0.238386647,-0.234772862,103,50,53,0,-1.136866566,-1.170500555,-1.053450499,-0.404197885,0.17633598,0.17633598,-1.053450499,-1.170500555,0,0,1
401,2,162,20,50,40,0,3128.203,64,1377.761,MORE,144,1734,1878,2,2,-10,-0.937408461,10,0.174607574,1.010801022,-0.72530623,90,50,40,1,-1.396151924,-1.170500555,-1.560667406,-0.68456636,0.320009915,0.320009915,-1.560667406,-1.170500555,1,0,1
402,2,163,25,80,88,1,4282.243,44,1329.252,MORE,-336,2100,1764,3,2,8,0.749926769,8,-0.174607574,-0.238386647,-0.597778605,168,80,88,0,0.15956022,0,0.312133481,-0.404197885,0.197734226,0.197734226,0.312133481,0,0,0,1
403,2,164,42,115,110,1,11387.791,34,1121.898,MORE,912,3980,4892,5,2,-5,-0.46870423,5,-0.698430296,-0.862980481,0.187422654,225,115,110,1,1.296426786,1.36558398,1.170500555,0.156539065,0.515651019,0.515651019,1.170500555,1.36558398,0,1,1
404,2,165,53,103,110,1,6243.72,64,1364.308,MORE,408,2974,3382,5,2,7,0.656185922,7,-0.349215148,1.010801022,-0.38102485,213,103,110,0,1.057086457,0.897383758,1.170500555,0.156539065,0.387261545,0.387261545,1.170500555,0.897383758,1,1,1
405,2,166,26,90,80,1,7674.5,44,1880.84,MORE,-384,3688,3304,5,2,-10,-0.937408461,10,0.174607574,-0.238386647,-0.222915967,170,90,80,1,0.199450275,0.390166852,0,0.156539065,0.185506657,0.185506657,0,0.390166852,0,1,1
406,2,167,35,80,72,0,13351.711,24,1787.587,MORE,-1262,6590,5328,12,1,-8,-0.749926769,8,-0.174607574,-1.487574315,0.404446373,152,80,72,1,-0.15956022,0,-0.312133481,2.11911839,-0.038155959,0.038155959,-0.312133481,0,0,1,0
407,2,168,28,93,80,0,15023.755,14,1651.419,MORE,118,6602,6720,8,1,-13,-1.218630999,13,0.698430296,-2.11216815,0.589216226,173,93,80,1,0.259285357,0.507216907,0,0.99764449,0.313386649,0.313386649,0,0.507216907,0,1,1
408,2,169,26,80,90,1,4556.762,34,1129.431,MORE,-702,2474,1772,3,2,10,0.937408461,10,0.174607574,-0.862980481,-0.567442779,170,80,90,0,0.199450275,0,0.390166852,-0.404197885,0.104499012,0.104499012,0.390166852,0,0,0,0
409,2,170,25,88,80,0,8987.876,34,1461.971,MORE,218,3802,4020,6,1,-8,-0.749926769,8,-0.174607574,-0.862980481,-0.077780857,168,88,80,1,0.15956022,0.312133481,0,0.43690754,0.338860751,0.338860751,0,0.312133481,0,1,1
410,2,171,36,80,70,0,10619.167,34,1592.764,MORE,240,4480,4720,7,2,-10,-0.937408461,10,0.174607574,-0.862980481,0.102485569,150,80,70,1,-0.199450275,0,-0.390166852,0.717276015,0.344465053,0.344465053,-0.390166852,0,0,1,1
411,2,172,28,80,93,1,3456.776,64,1060.793,MORE,396,1676,2072,3,2,13,1.218630999,13,0.698430296,1.010801022,-0.688997147,173,80,93,0,0.259285357,0,0.507216907,-0.404197885,0.384204652,0.384204652,0.507216907,0,1,0,1
412,2,173,21,82,80,0,6730.993,24,1502.226,MORE,-2196,4254,2058,4,1,-2,-0.187481692,2,-1.222253018,-1.487574315,-0.327178564,162,82,80,1,0.039890055,0.07803337,0,-0.12382941,-0.276084072,0.276084072,0,0.07803337,0,1,0
413,2,174,19,50,41,0,6897.652,44,2064.669,MORE,-852,3814,2962,5,2,-9,-0.843667615,9,0,-0.238386647,-0.308761848,91,50,41,1,-1.376206896,-1.170500555,-1.521650721,0.156539065,0.066287859,0.066287859,-1.521650721,-1.170500555,0,1,0
414,2,175,56,96,110,1,7074.372,64,1301.852,MORE,-246,3104,2858,5,2,14,1.312371845,14,0.87303787,1.010801022,-0.289233338,206,96,110,0,0.917471264,0.624266962,1.170500555,0.156539065,0.220660917,0.220660917,1.170500555,0.624266962,1,1,1
415,2,176,23,80,85,1,4346.168,64,1809.837,MORE,-464,2432,1968,3,2,5,0.46870423,5,-0.698430296,1.010801022,-0.590714549,165,80,85,0,0.099725137,0,0.195083426,-0.404197885,0.165127375,0.165127375,0.195083426,0,1,0,1
416,2,177,10,60,50,0,15269.582,34,1646.819,MORE,-410,7206,6796,11,2,-10,-0.937408461,10,0.174607574,-0.862980481,0.616381431,110,60,50,1,-0.997251374,-0.780333703,-1.170500555,1.838749915,0.17888339,0.17888339,-1.170500555,-0.780333703,0,1,1
417,2,178,19,41,50,1,5680.574,44,1678.551,MORE,-932,2710,1778,4,1,9,0.843667615,9,0,-0.238386647,-0.443255511,91,41,50,0,-1.376206896,-1.521650721,-1.170500555,-0.12382941,0.045908578,0.045908578,-1.170500555,-1.521650721,0,1,0
418,2,179,56,110,96,0,6420.155,54,1306.589,MORE,-2052,4158,2106,4,1,-14,-1.312371845,14,0.87303787,0.386207188,-0.361527834,206,110,96,1,0.917471264,1.170500555,0.624266962,-0.12382941,-0.239401365,0.239401365,0.624266962,1.170500555,1,1,0
419,2,180,35,72,80,1,7512.655,54,2780.489,MORE,188,3574,3762,5,2,8,0.749926769,8,-0.174607574,0.386207188,-0.24080071,152,72,80,0,-0.15956022,-0.312133481,0,0.156539065,0.33121852,0.33121852,0,-0.312133481,1,1,1
420,2,181,11,49,50,1,4470.683,54,1448.036,MORE,864,2056,2920,3,2,1,0.093740846,1,-1.396860592,0.386207188,-0.576954972,99,49,50,0,-1.216646676,-1.20951724,-1.170500555,-0.404197885,0.50342345,0.50342345,-1.170500555,-1.20951724,1,0,1
421,2,182,17,43,50,0,15616.594,24,1045.636,MORE,-954,7230,6276,6,1,7,0.656185922,7,-0.349215148,-1.487574315,0.654728123,93,43,50,0,-1.336316841,-1.443617351,-1.170500555,0.43690754,0.040304275,0.040304275,-1.170500555,-1.443617351,0,1,0
422,2,183,1,51,50,0,5593.92,54,1699.497,MORE,-1080,3150,2070,4,1,-1,-0.093740846,1,-1.396860592,0.386207188,-0.452831244,101,51,50,1,-1.176756621,-1.131483869,-1.170500555,-0.12382941,0.008206907,0.008206907,-1.170500555,-1.131483869,1,1,0
423,2,184,41,112,110,1,7397.905,44,1633.376,MORE,-3206,5038,1832,3,2,-2,-0.187481692,2,-1.222253018,-0.238386647,-0.253481202,222,112,110,1,1.236591704,1.248533925,1.170500555,-0.404197885,-0.533372502,0.533372502,1.170500555,1.248533925,0,0,0
424,2,185,20,40,50,1,4188.963,24,1771.923,MORE,468,1800,2268,3,2,10,0.937408461,10,0.174607574,-1.487574315,-0.608086546,90,40,50,0,-1.396151924,-1.560667406,-1.170500555,-0.404197885,0.402546006,0.402546006,-1.170500555,-1.560667406,0,0,1
425,2,186,1,50,51,1,11009.734,54,1889.552,MORE,-1722,5472,3750,5,2,1,0.093740846,1,-1.396860592,0.386207188,0.145645323,101,50,51,0,-1.176756621,-1.170500555,-1.131483869,0.156539065,-0.155336828,0.155336828,-1.131483869,-1.170500555,1,1,0
426,2,187,23,85,80,1,12227.283,14,1341.159,MORE,1324,5110,6434,11,1,-5,-0.46870423,5,-0.698430296,-2.11216815,0.280191034,165,85,80,1,0.099725137,0.195083426,0,1.838749915,0.620604319,0.620604319,0,0.195083426,0,1,1
427,2,188,11,50,49,0,6611.683,44,1258.425,MORE,-992,3896,2904,7,2,-1,-0.093740846,1,-1.396860592,-0.238386647,-0.34036296,99,50,49,1,-1.216646676,-1.170500555,-1.20951724,0.717276015,0.030624116,0.030624116,-1.20951724,-1.170500555,0,1,0
428,2,189,17,50,43,0,6072.679,34,1209.646,MORE,-1668,3734,2066,6,1,-7,-0.656185922,7,-0.349215148,-0.862980481,-0.3999258,93,50,43,1,-1.336316841,-1.170500555,-1.443617351,0.43690754,-0.141580813,0.141580813,-1.443617351,-1.170500555,0,1,0
429,2,190,21,80,82,1,6999.655,54,1150.075,MORE,504,2996,3500,4,2,2,0.187481692,2,-1.222253018,0.386207188,-0.297489968,162,80,82,0,0.039890055,0,0.07803337,-0.12382941,0.411716683,0.411716683,0.07803337,0,1,1,1
430,2,191,10,50,60,1,3228.329,44,1556.749,MORE,-18,1594,1576,3,2,10,0.937408461,10,0.174607574,-0.238386647,-0.714241768,110,50,60,0,-0.997251374,-1.170500555,-0.780333703,-0.404197885,0.27874187,0.27874187,-0.780333703,-1.170500555,0,0,1
